Timestamp,EventType,ParticipantID,ParticipantAge,ParticipantGender,IsPractice,BlockNumber,BlockType,TrialNumber,EffortLevel,RequiredPresses,DecisionType,ReactionTime,OutcomeType,RewardCollected,Points,TotalScore,PracticeScore,MovementDuration,StepStartTime,StepEndTime,StepDuration,StepSuccessful,StepPressesRequired,StartX,StartY,EndX,EndY,TotalPresses,PressData,TimePerPress,IsRushing,RushingThreshold,PenaltyType,PenaltyDuration,RemainingTime,ElapsedTime,CompletedTrials,TrialRate,CalibrationEasy,CalibrationMedium,CalibrationHard,CalibrationPhase1Rate,CalibrationPhase2Rate,CalibrationPhase3Rate,CalibrationMaxRate,CheckPhase,QuestionNumber,QuestionType,QuestionText,SelectedAnswer,CorrectAnswer,IsCorrect,ResponseTime,Check1Score,Check2Score,ComprehensionScore,TotalCheckScore,FailedAttempts,TirednessRating,ParticipantFeedback,ContinueButtonClicked,ButtonAction,RedirectURL,
2025-05-01 14:53:25.000,PracticeTrialStart,Unknown,0,Unknown,-,0,EqualRatio,1,-,-,-,-,-,-,-,-,-,-,-,-,-,-,-,-,-,-,-,-,-,-,-,-,-,-,-,-,-,-,-,-,-,-,-,-,-,-,-,-,-,-,-,-,-,-,-,-,-,-,-,-,-,-,-
2025-05-01 14:53:26.981,PracticeTrialStart,Unknown,0,Unknown,True,0,-,1,-,-,-,-,-,-,-,-,-,-,-,-,-,-,-,-,-,-,-,-,-,-,-,-,-,-,-,-,-,-,-,-,-,-,-,-,-,-,-,-,-,-,-,-,-,-,-,-,-,-,-,-,-,-,-
2025-05-01 14:53:27.567,MovementStart,Unknown,0,Unknown,-,0,-,1,-,-,-,-,-,-,-,-,-,-,-,-,-,-,-,5.50,-3.50,-,-,-,-,-,-,-,-,-,-,-,-,-,-,-,-,-,-,-,-,-,-,-,-,-,-,-,-,-,-,-,-,-,-,-,-,-,-
2025-05-01 14:53:27.667,MovementStep,Unknown,0,Unknown,-,0,Practice_EqualRatio,1,1,1,-,-,Pending,-,-,-,-,-,22.989,23.090,0.100,True,1,5.50,-3.50,4.50,-3.50,-,-,0.100,False,-,-,-,-,-,-,-,-,-,-,-,-,-,-,-,-,-,-,-,-,-,-,-,-,-,-,-,-,-,-,-,-
2025-05-01 14:53:27.748,MovementStart,Unknown,0,Unknown,-,0,-,1,-,-,-,-,-,-,-,-,-,-,-,-,-,-,-,4.50,-3.50,-,-,-,-,-,-,-,-,-,-,-,-,-,-,-,-,-,-,-,-,-,-,-,-,-,-,-,-,-,-,-,-,-,-,-,-,-,-
2025-05-01 14:53:27.849,MovementStep,Unknown,0,Unknown,-,0,Practice_EqualRatio,1,1,1,-,-,Pending,-,-,-,-,-,23.172,23.272,0.100,True,1,4.50,-3.50,3.50,-3.50,-,-,0.100,False,-,-,-,-,-,-,-,-,-,-,-,-,-,-,-,-,-,-,-,-,-,-,-,-,-,-,-,-,-,-,-,-
2025-05-01 14:53:27.901,MovementStart,Unknown,0,Unknown,-,0,-,1,-,-,-,-,-,-,-,-,-,-,-,-,-,-,-,3.50,-3.50,-,-,-,-,-,-,-,-,-,-,-,-,-,-,-,-,-,-,-,-,-,-,-,-,-,-,-,-,-,-,-,-,-,-,-,-,-,-
2025-05-01 14:53:28.001,MovementStep,Unknown,0,Unknown,-,0,Practice_EqualRatio,1,1,1,-,-,Pending,-,-,-,-,-,23.324,23.424,0.100,True,1,3.50,-3.50,2.50,-3.50,-,-,0.100,False,-,-,-,-,-,-,-,-,-,-,-,-,-,-,-,-,-,-,-,-,-,-,-,-,-,-,-,-,-,-,-,-
2025-05-01 14:53:28.054,MovementStart,Unknown,0,Unknown,-,0,-,1,-,-,-,-,-,-,-,-,-,-,-,-,-,-,-,2.50,-3.50,-,-,-,-,-,-,-,-,-,-,-,-,-,-,-,-,-,-,-,-,-,-,-,-,-,-,-,-,-,-,-,-,-,-,-,-,-,-
2025-05-01 14:53:28.154,MovementStep,Unknown,0,Unknown,-,0,Practice_EqualRatio,1,1,1,-,-,Pending,-,-,-,-,-,23.478,23.578,0.100,True,1,2.50,-3.50,1.50,-3.50,-,-,0.100,False,-,-,-,-,-,-,-,-,-,-,-,-,-,-,-,-,-,-,-,-,-,-,-,-,-,-,-,-,-,-,-,-
2025-05-01 14:53:28.193,MovementStart,Unknown,0,Unknown,-,0,-,1,-,-,-,-,-,-,-,-,-,-,-,-,-,-,-,1.50,-3.50,-,-,-,-,-,-,-,-,-,-,-,-,-,-,-,-,-,-,-,-,-,-,-,-,-,-,-,-,-,-,-,-,-,-,-,-,-,-
2025-05-01 14:53:28.220,ScoreUpdate,Unknown,0,Unknown,True,0,-,1,-,-,-,-,-,-,10,0,10,-,-,-,-,-,-,-,-,-,-,-,-,-,-,-,-,-,-,-,-,-,-,-,-,-,-,-,-,-,-,-,-,-,-,-,-,-,-,-,-,-,-,-,-,-,-
2025-05-01 14:53:28.220,CollisionTime,Unknown,0,Unknown,True,0,-,1,-,-,-,-,-,-,-,-,-,0.651,-,-,-,-,-,-,-,-,-,-,-,-,-,-,-,-,-,-,-,-,-,-,-,-,-,-,-,-,-,-,-,-,-,-,-,-,-,-,-,-,-,-,-,-,-
2025-05-01 14:53:28.221,MovementDuration,Unknown,0,Unknown,-,-,-,1,-,-,-,-,Success,-,-,-,-,0.651,-,-,-,-,-,-,-,-,-,-,-,-,-,-,-,-,-,-,-,-,-,-,-,-,-,-,-,-,-,-,-,-,-,-,-,-,-,-,-,-,-,-,-,-,-
2025-05-01 14:53:28.224,DecisionOutcome,Unknown,0,Unknown,True,0,Practice_EqualRatio,1,1,1,Work,0.559,Success,True,10,0,0,0.651,-,-,-,-,-,-,-,-,-,5,0.472:left|0.654:left|0.807:left|0.960:left|1.099:left,0.130,False,0.1,-,-,0.00,0.00,0,0,-,-,-,-,-,-,-,-,-,-,-,-,-,-,-,-,-,-,-,-,-,-,-,-,-
2025-05-01 14:53:28.224,MovementComplete,Unknown,0,Unknown,-,-,-,1,-,-,-,-,-,True,-,-,-,-,-,-,-,-,-,-,-,-,-,-,-,-,-,-,-,-,-,-,-,-,-,-,-,-,-,-,-,-,-,-,-,-,-,-,-,-,-,-,-,-,-,-,-,-,-
2025-05-01 14:53:28.225,RewardCollected,Unknown,0,Unknown,-,-,-,1,-,-,-,-,-,-,-,-,-,-,-,-,-,-,-,-,-,-,-,-,-,-,-,-,-,-,-,-,-,-,-,-,-,-,-,-,-,-,-,-,-,-,-,-,-,-,-,-,-,-,-,-,-,-,-
2025-05-01 14:53:28.225,OutcomeType,Unknown,0,Unknown,-,-,-,1,-,-,-,-,Success,-,-,-,-,-,-,-,-,-,-,-,-,-,-,-,-,-,-,-,-,-,-,-,-,-,-,-,-,-,-,-,-,-,-,-,-,-,-,-,-,-,-,-,-,-,-,-,-,-,-
2025-05-01 14:53:28.226,RewardCollected,Unknown,0,Unknown,-,-,-,1,-,-,-,-,-,-,-,-,-,-,-,-,-,-,-,-,-,-,-,-,-,-,-,-,-,-,-,-,-,-,-,-,-,-,-,-,-,-,-,-,-,-,-,-,-,-,-,-,-,-,-,-,-,-,-
2025-05-01 14:53:28.226,ButtonPresses,Unknown,0,Unknown,-,-,-,1,-,-,-,-,-,-,-,-,-,-,-,-,-,-,-,-,-,-,-,5,0.472:left|0.654:left|0.807:left|0.960:left|1.099:left,-,-,-,-,-,-,-,-,-,-,-,-,-,-,-,-,-,-,-,-,-,-,-,-,-,-,-,-,-,-,-,-,-,-
2025-05-01 14:53:28.294,MovementStep,Unknown,0,Unknown,-,0,Practice_EqualRatio,1,1,1,-,-,Success,-,-,-,-,-,23.617,23.717,0.101,True,1,1.50,-3.50,0.50,-3.50,-,-,0.101,False,-,-,-,-,-,-,-,-,-,-,-,-,-,-,-,-,-,-,-,-,-,-,-,-,-,-,-,-,-,-,-,-
2025-05-01 14:53:32.215,PracticeTrialStart,Unknown,0,Unknown,-,0,EqualRatio,2,-,-,-,-,-,-,-,-,-,-,-,-,-,-,-,-,-,-,-,-,-,-,-,-,-,-,-,-,-,-,-,-,-,-,-,-,-,-,-,-,-,-,-,-,-,-,-,-,-,-,-,-,-,-,-
2025-05-01 14:53:32.232,InfoMessage,Unknown,0,Unknown,-,-,-,-,-,-,-,-,-,-,-,-,-,-,-,-,-,-,-,-,-,-,-,-,-,-,-,-,-,-,-,-,-,-,-,-,-,-,-,-,-,-,-,-,-,-,-,-,-,-,-,-,-,-,-,-,-,-,-
2025-05-01 14:53:33.424,DecisionOutcome,Unknown,0,Unknown,True,0,Practice_EqualRatio,2,2,3,Skip,1.203,Skip,False,0,0,0,0.000,-,-,-,-,-,-,-,-,-,0,-,-1.000,False,0.1,Skip,3,0.00,0.00,0,0,-,-,-,-,-,-,-,-,-,-,-,-,-,-,-,-,-,-,-,-,-,-,-,-,-
2025-05-01 14:53:33.426,ScoreUpdate,Unknown,0,Unknown,True,0,-,2,-,-,-,-,-,-,0,0,10,-,-,-,-,-,-,-,-,-,-,-,-,-,-,-,-,-,-,-,-,-,-,-,-,-,-,-,-,-,-,-,-,-,-,-,-,-,-,-,-,-,-,-,-,-,-
2025-05-01 14:53:36.568,PracticeTrialStart,Unknown,0,Unknown,-,0,EqualRatio,3,-,-,-,-,-,-,-,-,-,-,-,-,-,-,-,-,-,-,-,-,-,-,-,-,-,-,-,-,-,-,-,-,-,-,-,-,-,-,-,-,-,-,-,-,-,-,-,-,-,-,-,-,-,-,-
2025-05-01 14:53:36.584,InfoMessage,Unknown,0,Unknown,-,-,-,-,-,-,-,-,-,-,-,-,-,-,-,-,-,-,-,-,-,-,-,-,-,-,-,-,-,-,-,-,-,-,-,-,-,-,-,-,-,-,-,-,-,-,-,-,-,-,-,-,-,-,-,-,-,-,-
2025-05-01 14:53:37.163,DecisionOutcome,Unknown,0,Unknown,True,0,Practice_EqualRatio,3,3,5,Skip,0.591,Skip,False,0,0,0,0.000,-,-,-,-,-,-,-,-,-,0,-,-1.000,False,0.1,Skip,3,0.00,0.00,0,0,-,-,-,-,-,-,-,-,-,-,-,-,-,-,-,-,-,-,-,-,-,-,-,-,-
2025-05-01 14:53:37.165,ScoreUpdate,Unknown,0,Unknown,True,0,-,3,-,-,-,-,-,-,0,0,10,-,-,-,-,-,-,-,-,-,-,-,-,-,-,-,-,-,-,-,-,-,-,-,-,-,-,-,-,-,-,-,-,-,-,-,-,-,-,-,-,-,-,-,-,-,-
2025-05-01 14:53:40.306,PracticeTrialStart,Unknown,0,Unknown,-,0,EqualRatio,4,-,-,-,-,-,-,-,-,-,-,-,-,-,-,-,-,-,-,-,-,-,-,-,-,-,-,-,-,-,-,-,-,-,-,-,-,-,-,-,-,-,-,-,-,-,-,-,-,-,-,-,-,-,-,-
2025-05-01 14:53:40.323,InfoMessage,Unknown,0,Unknown,-,-,-,-,-,-,-,-,-,-,-,-,-,-,-,-,-,-,-,-,-,-,-,-,-,-,-,-,-,-,-,-,-,-,-,-,-,-,-,-,-,-,-,-,-,-,-,-,-,-,-,-,-,-,-,-,-,-,-
2025-05-01 14:53:42.031,PracticeTrialStart,Unknown,0,Unknown,True,0,-,4,-,-,-,-,-,-,-,-,-,-,-,-,-,-,-,-,-,-,-,-,-,-,-,-,-,-,-,-,-,-,-,-,-,-,-,-,-,-,-,-,-,-,-,-,-,-,-,-,-,-,-,-,-,-,-
2025-05-01 14:53:42.986,MovementStart,Unknown,0,Unknown,-,0,-,4,-,-,-,-,-,-,-,-,-,-,-,-,-,-,-,-5.50,-0.50,-,-,-,-,-,-,-,-,-,-,-,-,-,-,-,-,-,-,-,-,-,-,-,-,-,-,-,-,-,-,-,-,-,-,-,-,-,-
2025-05-01 14:53:43.086,MovementStep,Unknown,0,Unknown,-,0,Practice_EqualRatio,4,1,1,-,-,Pending,-,-,-,-,-,37.692,37.792,0.100,True,1,-5.50,-0.50,-4.50,-0.50,-,-,0.100,False,-,-,-,-,-,-,-,-,-,-,-,-,-,-,-,-,-,-,-,-,-,-,-,-,-,-,-,-,-,-,-,-
2025-05-01 14:53:43.148,MovementStart,Unknown,0,Unknown,-,0,-,4,-,-,-,-,-,-,-,-,-,-,-,-,-,-,-,-4.50,-0.50,-,-,-,-,-,-,-,-,-,-,-,-,-,-,-,-,-,-,-,-,-,-,-,-,-,-,-,-,-,-,-,-,-,-,-,-,-,-
2025-05-01 14:53:43.248,MovementStep,Unknown,0,Unknown,-,0,Practice_EqualRatio,4,1,1,-,-,Pending,-,-,-,-,-,37.854,37.954,0.100,True,1,-4.50,-0.50,-3.50,-0.50,-,-,0.100,False,-,-,-,-,-,-,-,-,-,-,-,-,-,-,-,-,-,-,-,-,-,-,-,-,-,-,-,-,-,-,-,-
2025-05-01 14:53:43.288,MovementStart,Unknown,0,Unknown,-,0,-,4,-,-,-,-,-,-,-,-,-,-,-,-,-,-,-,-3.50,-0.50,-,-,-,-,-,-,-,-,-,-,-,-,-,-,-,-,-,-,-,-,-,-,-,-,-,-,-,-,-,-,-,-,-,-,-,-,-,-
2025-05-01 14:53:43.388,MovementStep,Unknown,0,Unknown,-,0,Practice_EqualRatio,4,1,1,-,-,Pending,-,-,-,-,-,37.994,38.094,0.100,True,1,-3.50,-0.50,-2.50,-0.50,-,-,0.100,False,-,-,-,-,-,-,-,-,-,-,-,-,-,-,-,-,-,-,-,-,-,-,-,-,-,-,-,-,-,-,-,-
2025-05-01 14:53:43.426,MovementStart,Unknown,0,Unknown,-,0,-,4,-,-,-,-,-,-,-,-,-,-,-,-,-,-,-,-2.50,-0.50,-,-,-,-,-,-,-,-,-,-,-,-,-,-,-,-,-,-,-,-,-,-,-,-,-,-,-,-,-,-,-,-,-,-,-,-,-,-
2025-05-01 14:53:43.527,MovementStep,Unknown,0,Unknown,-,0,Practice_EqualRatio,4,1,1,-,-,Pending,-,-,-,-,-,38.132,38.233,0.100,True,1,-2.50,-0.50,-1.50,-0.50,-,-,0.100,False,-,-,-,-,-,-,-,-,-,-,-,-,-,-,-,-,-,-,-,-,-,-,-,-,-,-,-,-,-,-,-,-
2025-05-01 14:53:43.570,MovementStart,Unknown,0,Unknown,-,0,-,4,-,-,-,-,-,-,-,-,-,-,-,-,-,-,-,-1.50,-0.50,-,-,-,-,-,-,-,-,-,-,-,-,-,-,-,-,-,-,-,-,-,-,-,-,-,-,-,-,-,-,-,-,-,-,-,-,-,-
2025-05-01 14:53:43.595,ScoreUpdate,Unknown,0,Unknown,True,0,-,4,-,-,-,-,-,-,10,0,20,-,-,-,-,-,-,-,-,-,-,-,-,-,-,-,-,-,-,-,-,-,-,-,-,-,-,-,-,-,-,-,-,-,-,-,-,-,-,-,-,-,-,-,-,-,-
2025-05-01 14:53:43.596,CollisionTime,Unknown,0,Unknown,True,0,-,4,-,-,-,-,-,-,-,-,-,0.608,-,-,-,-,-,-,-,-,-,-,-,-,-,-,-,-,-,-,-,-,-,-,-,-,-,-,-,-,-,-,-,-,-,-,-,-,-,-,-,-,-,-,-,-,-
2025-05-01 14:53:43.596,MovementDuration,Unknown,0,Unknown,-,-,-,4,-,-,-,-,Success,-,-,-,-,0.608,-,-,-,-,-,-,-,-,-,-,-,-,-,-,-,-,-,-,-,-,-,-,-,-,-,-,-,-,-,-,-,-,-,-,-,-,-,-,-,-,-,-,-,-,-
2025-05-01 14:53:43.599,DecisionOutcome,Unknown,0,Unknown,True,0,Practice_EqualRatio,4,1,1,Work,0.313,Success,True,10,0,0,0.608,-,-,-,-,-,-,-,-,-,5,0.849:right|1.011:right|1.151:right|1.290:right|1.433:right,0.122,False,0.1,-,-,0.00,0.00,0,0,-,-,-,-,-,-,-,-,-,-,-,-,-,-,-,-,-,-,-,-,-,-,-,-,-
2025-05-01 14:53:43.599,MovementComplete,Unknown,0,Unknown,-,-,-,4,-,-,-,-,-,True,-,-,-,-,-,-,-,-,-,-,-,-,-,-,-,-,-,-,-,-,-,-,-,-,-,-,-,-,-,-,-,-,-,-,-,-,-,-,-,-,-,-,-,-,-,-,-,-,-
2025-05-01 14:53:43.599,RewardCollected,Unknown,0,Unknown,-,-,-,4,-,-,-,-,-,-,-,-,-,-,-,-,-,-,-,-,-,-,-,-,-,-,-,-,-,-,-,-,-,-,-,-,-,-,-,-,-,-,-,-,-,-,-,-,-,-,-,-,-,-,-,-,-,-,-
2025-05-01 14:53:43.600,OutcomeType,Unknown,0,Unknown,-,-,-,4,-,-,-,-,Success,-,-,-,-,-,-,-,-,-,-,-,-,-,-,-,-,-,-,-,-,-,-,-,-,-,-,-,-,-,-,-,-,-,-,-,-,-,-,-,-,-,-,-,-,-,-,-,-,-,-
2025-05-01 14:53:43.600,RewardCollected,Unknown,0,Unknown,-,-,-,4,-,-,-,-,-,-,-,-,-,-,-,-,-,-,-,-,-,-,-,-,-,-,-,-,-,-,-,-,-,-,-,-,-,-,-,-,-,-,-,-,-,-,-,-,-,-,-,-,-,-,-,-,-,-,-
2025-05-01 14:53:43.600,ButtonPresses,Unknown,0,Unknown,-,-,-,4,-,-,-,-,-,-,-,-,-,-,-,-,-,-,-,-,-,-,-,5,0.849:right|1.011:right|1.151:right|1.290:right|1.433:right,-,-,-,-,-,-,-,-,-,-,-,-,-,-,-,-,-,-,-,-,-,-,-,-,-,-,-,-,-,-,-,-,-,-
2025-05-01 14:53:43.671,MovementStep,Unknown,0,Unknown,-,0,Practice_EqualRatio,4,1,1,-,-,Success,-,-,-,-,-,38.276,38.376,0.100,True,1,-1.50,-0.50,-0.50,-0.50,-,-,0.100,False,-,-,-,-,-,-,-,-,-,-,-,-,-,-,-,-,-,-,-,-,-,-,-,-,-,-,-,-,-,-,-,-
2025-05-01 14:53:47.268,PracticeTrialStart,Unknown,0,Unknown,-,0,EqualRatio,5,-,-,-,-,-,-,-,-,-,-,-,-,-,-,-,-,-,-,-,-,-,-,-,-,-,-,-,-,-,-,-,-,-,-,-,-,-,-,-,-,-,-,-,-,-,-,-,-,-,-,-,-,-,-,-
2025-05-01 14:53:47.285,InfoMessage,Unknown,0,Unknown,-,-,-,-,-,-,-,-,-,-,-,-,-,-,-,-,-,-,-,-,-,-,-,-,-,-,-,-,-,-,-,-,-,-,-,-,-,-,-,-,-,-,-,-,-,-,-,-,-,-,-,-,-,-,-,-,-,-,-
2025-05-01 14:53:49.219,PracticeTrialStart,Unknown,0,Unknown,True,0,-,5,-,-,-,-,-,-,-,-,-,-,-,-,-,-,-,-,-,-,-,-,-,-,-,-,-,-,-,-,-,-,-,-,-,-,-,-,-,-,-,-,-,-,-,-,-,-,-,-,-,-,-,-,-,-,-
2025-05-01 14:53:50.956,MovementStart,Unknown,0,Unknown,-,0,-,5,-,-,-,-,-,-,-,-,-,-,-,-,-,-,-,0.50,1.50,-,-,-,-,-,-,-,-,-,-,-,-,-,-,-,-,-,-,-,-,-,-,-,-,-,-,-,-,-,-,-,-,-,-,-,-,-,-
2025-05-01 14:53:51.056,MovementStep,Unknown,0,Unknown,-,0,Practice_EqualRatio,5,2,3,-,-,Pending,-,-,-,-,-,44.794,45.331,0.537,True,3,0.50,1.50,-0.50,1.50,-,-,0.179,False,-,-,-,-,-,-,-,-,-,-,-,-,-,-,-,-,-,-,-,-,-,-,-,-,-,-,-,-,-,-,-,-
2025-05-01 14:53:51.563,MovementStart,Unknown,0,Unknown,-,0,-,5,-,-,-,-,-,-,-,-,-,-,-,-,-,-,-,-0.50,1.50,-,-,-,-,-,-,-,-,-,-,-,-,-,-,-,-,-,-,-,-,-,-,-,-,-,-,-,-,-,-,-,-,-,-,-,-,-,-
2025-05-01 14:53:51.663,MovementStep,Unknown,0,Unknown,-,0,Practice_EqualRatio,5,2,3,-,-,Pending,-,-,-,-,-,45.435,45.938,0.503,True,3,-0.50,1.50,-1.50,1.50,-,-,0.168,False,-,-,-,-,-,-,-,-,-,-,-,-,-,-,-,-,-,-,-,-,-,-,-,-,-,-,-,-,-,-,-,-
2025-05-01 14:53:52.155,MovementStart,Unknown,0,Unknown,-,0,-,5,-,-,-,-,-,-,-,-,-,-,-,-,-,-,-,-1.50,1.50,-,-,-,-,-,-,-,-,-,-,-,-,-,-,-,-,-,-,-,-,-,-,-,-,-,-,-,-,-,-,-,-,-,-,-,-,-,-
2025-05-01 14:53:52.255,MovementStep,Unknown,0,Unknown,-,0,Practice_EqualRatio,5,2,3,-,-,Pending,-,-,-,-,-,46.035,46.530,0.495,True,3,-1.50,1.50,-2.50,1.50,-,-,0.165,False,-,-,-,-,-,-,-,-,-,-,-,-,-,-,-,-,-,-,-,-,-,-,-,-,-,-,-,-,-,-,-,-
2025-05-01 14:53:54.305,MovementDuration,Unknown,0,Unknown,-,-,-,5,-,-,-,-,Failure,-,-,-,-,3.786,-,-,-,-,-,-,-,-,-,-,-,-,-,-,-,-,-,-,-,-,-,-,-,-,-,-,-,-,-,-,-,-,-,-,-,-,-,-,-,-,-,-,-,-,-
2025-05-01 14:53:54.306,OutcomeType,Unknown,0,Unknown,-,-,-,5,-,-,-,-,Failure,-,-,-,-,-,-,-,-,-,-,-,-,-,-,-,-,-,-,-,-,-,-,-,-,-,-,-,-,-,-,-,-,-,-,-,-,-,-,-,-,-,-,-,-,-,-,-,-,-,-
2025-05-01 14:53:54.306,RewardCollected,Unknown,0,Unknown,-,-,-,5,-,-,-,-,-,-,-,-,-,-,-,-,-,-,-,-,-,-,-,-,-,-,-,-,-,-,-,-,-,-,-,-,-,-,-,-,-,-,-,-,-,-,-,-,-,-,-,-,-,-,-,-,-,-,-
2025-05-01 14:53:54.307,ButtonPresses,Unknown,0,Unknown,-,-,-,5,-,-,-,-,-,-,-,-,-,-,-,-,-,-,-,-,-,-,-,11,1.195:left|1.419:left|1.632:left|1.836:left|2.039:left|2.239:left|2.435:left|2.631:left|2.831:left|3.054:left|3.265:left,-,-,-,-,-,-,-,-,-,-,-,-,-,-,-,-,-,-,-,-,-,-,-,-,-,-,-,-,-,-,-,-,-,-
2025-05-01 14:53:54.309,DecisionOutcome,Unknown,0,Unknown,True,0,Practice_EqualRatio,5,2,3,Work,0.537,Failure,False,0,0,0,3.786,-,-,-,-,-,-,-,-,-,11,1.195:left|1.419:left|1.632:left|1.836:left|2.039:left|2.239:left|2.435:left|2.631:left|2.831:left|3.054:left|3.265:left,0.344,False,0.1,-,-,0.00,0.00,0,0,-,-,-,-,-,-,-,-,-,-,-,-,-,-,-,-,-,-,-,-,-,-,-,-,-
2025-05-01 14:53:54.310,ButtonPresses,Unknown,0,Unknown,-,-,-,5,-,-,-,-,-,-,-,-,-,-,-,-,-,-,-,-,-,-,-,11,1.195:left|1.419:left|1.632:left|1.836:left|2.039:left|2.239:left|2.435:left|2.631:left|2.831:left|3.054:left|3.265:left,-,-,-,-,-,-,-,-,-,-,-,-,-,-,-,-,-,-,-,-,-,-,-,-,-,-,-,-,-,-,-,-,-,-
2025-05-01 14:53:54.310,MovementComplete,Unknown,0,Unknown,-,-,-,5,-,-,-,-,-,False,-,-,-,-,-,-,-,-,-,-,-,-,-,-,-,-,-,-,-,-,-,-,-,-,-,-,-,-,-,-,-,-,-,-,-,-,-,-,-,-,-,-,-,-,-,-,-,-,-
2025-05-01 14:53:54.311,RewardCollected,Unknown,0,Unknown,-,-,-,5,-,-,-,-,-,-,-,-,-,-,-,-,-,-,-,-,-,-,-,-,-,-,-,-,-,-,-,-,-,-,-,-,-,-,-,-,-,-,-,-,-,-,-,-,-,-,-,-,-,-,-,-,-,-,-
2025-05-01 14:53:54.549,PracticeTrialStart,Unknown,0,Unknown,-,0,EqualRatio,6,-,-,-,-,-,-,-,-,-,-,-,-,-,-,-,-,-,-,-,-,-,-,-,-,-,-,-,-,-,-,-,-,-,-,-,-,-,-,-,-,-,-,-,-,-,-,-,-,-,-,-,-,-,-,-
2025-05-01 14:53:54.601,InfoMessage,Unknown,0,Unknown,-,-,-,-,-,-,-,-,-,-,-,-,-,-,-,-,-,-,-,-,-,-,-,-,-,-,-,-,-,-,-,-,-,-,-,-,-,-,-,-,-,-,-,-,-,-,-,-,-,-,-,-,-,-,-,-,-,-,-
2025-05-01 14:54:01.835,CHECK_QUESTION,Unknown,0,Unknown,-,-,-,1,-,-,-,-,-,-,-,-,-,-,-,-,-,-,-,-,-,-,-,-,-,-,-,-,-,-,-,-,-,-,-,-,-,-,-,-,-,1,1,FruitPreference,"Choose preferred fruit between Watermelon(Clone) and Apple(Clone)",F,T,False,0.452,-,-,-,-,-,-,-,-,-,-
2025-05-01 14:54:01.872,CHECK_QUESTION,Unknown,0,Unknown,-,-,-,2,-,-,-,-,-,-,-,-,-,-,-,-,-,-,-,-,-,-,-,-,-,-,-,-,-,-,-,-,-,-,-,-,-,-,-,-,-,1,2,FruitPreference,"Choose preferred fruit between Grapes(Clone) and Apple(Clone)",T,T,True,0.040,-,-,-,-,-,-,-,-,-,-
2025-05-01 14:54:02.001,CHECK_QUESTION,Unknown,0,Unknown,-,-,-,3,-,-,-,-,-,-,-,-,-,-,-,-,-,-,-,-,-,-,-,-,-,-,-,-,-,-,-,-,-,-,-,-,-,-,-,-,-,1,3,FruitPreference,"Choose preferred fruit between Grapes(Clone) and Watermelon(Clone)",T,T,True,0.131,-,-,-,-,-,-,-,-,-,-
2025-05-01 14:54:02.080,CHECK_QUESTION,Unknown,0,Unknown,-,-,-,4,-,-,-,-,-,-,-,-,-,-,-,-,-,-,-,-,-,-,-,-,-,-,-,-,-,-,-,-,-,-,-,-,-,-,-,-,-,1,4,FruitPreference,"Choose preferred fruit between Grapes(Clone) and Apple(Clone)",T,T,True,0.079,-,-,-,-,-,-,-,-,-,-
2025-05-01 14:54:02.163,CHECK_QUESTION,Unknown,0,Unknown,-,-,-,5,-,-,-,-,-,-,-,-,-,-,-,-,-,-,-,-,-,-,-,-,-,-,-,-,-,-,-,-,-,-,-,-,-,-,-,-,-,1,5,FruitPreference,"Choose preferred fruit between Apple(Clone) and Watermelon(Clone)",T,T,True,0.083,-,-,-,-,-,-,-,-,-,-
2025-05-01 14:54:02.243,CHECK_QUESTION,Unknown,0,Unknown,-,-,-,6,-,-,-,-,-,-,-,-,-,-,-,-,-,-,-,-,-,-,-,-,-,-,-,-,-,-,-,-,-,-,-,-,-,-,-,-,-,1,6,FruitPreference,"Choose preferred fruit between Watermelon(Clone) and Grapes(Clone)",T,T,True,0.081,-,-,-,-,-,-,-,-,-,-
2025-05-01 14:54:06.629,PracticeTrialStart,Unknown,0,Unknown,-,1,HighLowRatio,1,-,-,-,-,-,-,-,-,-,-,-,-,-,-,-,-,-,-,-,-,-,-,-,-,-,-,-,-,-,-,-,-,-,-,-,-,-,-,-,-,-,-,-,-,-,-,-,-,-,-,-,-,-,-,-
2025-05-01 14:54:06.645,InfoMessage,Unknown,0,Unknown,-,-,-,-,-,-,-,-,-,-,-,-,-,-,-,-,-,-,-,-,-,-,-,-,-,-,-,-,-,-,-,-,-,-,-,-,-,-,-,-,-,-,-,-,-,-,-,-,-,-,-,-,-,-,-,-,-,-,-
2025-05-01 14:54:09.429,PracticeTrialStart,Unknown,0,Unknown,True,0,-,1,-,-,-,-,-,-,-,-,-,-,-,-,-,-,-,-,-,-,-,-,-,-,-,-,-,-,-,-,-,-,-,-,-,-,-,-,-,-,-,-,-,-,-,-,-,-,-,-,-,-,-,-,-,-,-
2025-05-01 14:54:10.121,MovementStart,Unknown,0,Unknown,-,0,-,1,-,-,-,-,-,-,-,-,-,-,-,-,-,-,-,3.50,-1.50,-,-,-,-,-,-,-,-,-,-,-,-,-,-,-,-,-,-,-,-,-,-,-,-,-,-,-,-,-,-,-,-,-,-,-,-,-,-
2025-05-01 14:54:10.221,MovementStep,Unknown,0,Unknown,-,0,Practice_HighLowRatio,1,1,1,-,-,Pending,-,-,-,-,-,63.116,63.216,0.100,True,1,3.50,-1.50,2.50,-1.50,-,-,0.100,False,-,-,-,-,-,-,-,-,-,-,-,-,-,-,-,-,-,-,-,-,-,-,-,-,-,-,-,-,-,-,-,-
2025-05-01 14:54:10.302,MovementStart,Unknown,0,Unknown,-,0,-,1,-,-,-,-,-,-,-,-,-,-,-,-,-,-,-,2.50,-1.50,-,-,-,-,-,-,-,-,-,-,-,-,-,-,-,-,-,-,-,-,-,-,-,-,-,-,-,-,-,-,-,-,-,-,-,-,-,-
2025-05-01 14:54:10.403,MovementStep,Unknown,0,Unknown,-,0,Practice_HighLowRatio,1,1,1,-,-,Pending,-,-,-,-,-,63.297,63.398,0.101,True,1,2.50,-1.50,1.50,-1.50,-,-,0.101,False,-,-,-,-,-,-,-,-,-,-,-,-,-,-,-,-,-,-,-,-,-,-,-,-,-,-,-,-,-,-,-,-
2025-05-01 14:54:10.471,MovementStart,Unknown,0,Unknown,-,0,-,1,-,-,-,-,-,-,-,-,-,-,-,-,-,-,-,1.50,-1.50,-,-,-,-,-,-,-,-,-,-,-,-,-,-,-,-,-,-,-,-,-,-,-,-,-,-,-,-,-,-,-,-,-,-,-,-,-,-
2025-05-01 14:54:10.571,MovementStep,Unknown,0,Unknown,-,0,Practice_HighLowRatio,1,1,1,-,-,Pending,-,-,-,-,-,63.466,63.566,0.100,True,1,1.50,-1.50,0.50,-1.50,-,-,0.100,False,-,-,-,-,-,-,-,-,-,-,-,-,-,-,-,-,-,-,-,-,-,-,-,-,-,-,-,-,-,-,-,-
2025-05-01 14:54:10.627,MovementStart,Unknown,0,Unknown,-,0,-,1,-,-,-,-,-,-,-,-,-,-,-,-,-,-,-,0.50,-1.50,-,-,-,-,-,-,-,-,-,-,-,-,-,-,-,-,-,-,-,-,-,-,-,-,-,-,-,-,-,-,-,-,-,-,-,-,-,-
2025-05-01 14:54:10.727,MovementStart,Unknown,0,Unknown,-,0,-,1,-,-,-,-,-,-,-,-,-,-,-,-,-,-,-,-0.50,-1.50,-,-,-,-,-,-,-,-,-,-,-,-,-,-,-,-,-,-,-,-,-,-,-,-,-,-,-,-,-,-,-,-,-,-,-,-,-,-
2025-05-01 14:54:10.728,MovementStep,Unknown,0,Unknown,-,0,Practice_HighLowRatio,1,1,1,-,-,Pending,-,-,-,-,-,63.621,63.722,0.101,True,1,0.50,-1.50,-0.50,-1.50,-,-,0.101,False,-,-,-,-,-,-,-,-,-,-,-,-,-,-,-,-,-,-,-,-,-,-,-,-,-,-,-,-,-,-,-,-
2025-05-01 14:54:10.747,ScoreUpdate,Unknown,0,Unknown,True,0,-,1,-,-,-,-,-,-,10,0,30,-,-,-,-,-,-,-,-,-,-,-,-,-,-,-,-,-,-,-,-,-,-,-,-,-,-,-,-,-,-,-,-,-,-,-,-,-,-,-,-,-,-,-,-,-,-
2025-05-01 14:54:10.748,CollisionTime,Unknown,0,Unknown,True,0,-,1,-,-,-,-,-,-,-,-,-,0.624,-,-,-,-,-,-,-,-,-,-,-,-,-,-,-,-,-,-,-,-,-,-,-,-,-,-,-,-,-,-,-,-,-,-,-,-,-,-,-,-,-,-,-,-,-
2025-05-01 14:54:10.749,MovementDuration,Unknown,0,Unknown,-,-,-,1,-,-,-,-,Success,-,-,-,-,0.624,-,-,-,-,-,-,-,-,-,-,-,-,-,-,-,-,-,-,-,-,-,-,-,-,-,-,-,-,-,-,-,-,-,-,-,-,-,-,-,-,-,-,-,-,-
2025-05-01 14:54:10.751,DecisionOutcome,Unknown,0,Unknown,True,0,Practice_HighLowRatio,1,1,1,Work,1.391,Success,True,10,0,0,0.624,-,-,-,-,-,-,-,-,-,5,0.586:left|0.767:left|0.936:left|1.091:left|1.192:left,0.125,False,0.1,-,-,0.00,0.00,0,0,-,-,-,-,-,-,-,-,-,-,-,-,-,-,-,-,-,-,-,-,-,-,-,-,-
2025-05-01 14:54:10.751,MovementComplete,Unknown,0,Unknown,-,-,-,1,-,-,-,-,-,True,-,-,-,-,-,-,-,-,-,-,-,-,-,-,-,-,-,-,-,-,-,-,-,-,-,-,-,-,-,-,-,-,-,-,-,-,-,-,-,-,-,-,-,-,-,-,-,-,-
2025-05-01 14:54:10.752,RewardCollected,Unknown,0,Unknown,-,-,-,1,-,-,-,-,-,-,-,-,-,-,-,-,-,-,-,-,-,-,-,-,-,-,-,-,-,-,-,-,-,-,-,-,-,-,-,-,-,-,-,-,-,-,-,-,-,-,-,-,-,-,-,-,-,-,-
2025-05-01 14:54:10.752,OutcomeType,Unknown,0,Unknown,-,-,-,1,-,-,-,-,Success,-,-,-,-,-,-,-,-,-,-,-,-,-,-,-,-,-,-,-,-,-,-,-,-,-,-,-,-,-,-,-,-,-,-,-,-,-,-,-,-,-,-,-,-,-,-,-,-,-,-
2025-05-01 14:54:10.752,RewardCollected,Unknown,0,Unknown,-,-,-,1,-,-,-,-,-,-,-,-,-,-,-,-,-,-,-,-,-,-,-,-,-,-,-,-,-,-,-,-,-,-,-,-,-,-,-,-,-,-,-,-,-,-,-,-,-,-,-,-,-,-,-,-,-,-,-
2025-05-01 14:54:10.753,ButtonPresses,Unknown,0,Unknown,-,-,-,1,-,-,-,-,-,-,-,-,-,-,-,-,-,-,-,-,-,-,-,5,0.586:left|0.767:left|0.936:left|1.091:left|1.192:left,-,-,-,-,-,-,-,-,-,-,-,-,-,-,-,-,-,-,-,-,-,-,-,-,-,-,-,-,-,-,-,-,-,-
2025-05-01 14:54:10.827,MovementStep,Unknown,0,Unknown,-,0,Practice_HighLowRatio,1,1,1,-,-,Success,-,-,-,-,-,63.722,63.822,0.100,True,1,-0.50,-1.50,-1.50,-1.50,-,-,0.100,False,-,-,-,-,-,-,-,-,-,-,-,-,-,-,-,-,-,-,-,-,-,-,-,-,-,-,-,-,-,-,-,-
2025-05-01 14:54:14.680,PracticeTrialStart,Unknown,0,Unknown,-,1,HighLowRatio,2,-,-,-,-,-,-,-,-,-,-,-,-,-,-,-,-,-,-,-,-,-,-,-,-,-,-,-,-,-,-,-,-,-,-,-,-,-,-,-,-,-,-,-,-,-,-,-,-,-,-,-,-,-,-,-
2025-05-01 14:54:14.697,InfoMessage,Unknown,0,Unknown,-,-,-,-,-,-,-,-,-,-,-,-,-,-,-,-,-,-,-,-,-,-,-,-,-,-,-,-,-,-,-,-,-,-,-,-,-,-,-,-,-,-,-,-,-,-,-,-,-,-,-,-,-,-,-,-,-,-,-
2025-05-01 14:54:16.631,PracticeTrialStart,Unknown,0,Unknown,True,0,-,2,-,-,-,-,-,-,-,-,-,-,-,-,-,-,-,-,-,-,-,-,-,-,-,-,-,-,-,-,-,-,-,-,-,-,-,-,-,-,-,-,-,-,-,-,-,-,-,-,-,-,-,-,-,-,-
2025-05-01 14:54:18.804,MovementStart,Unknown,0,Unknown,-,0,-,2,-,-,-,-,-,-,-,-,-,-,-,-,-,-,-,-6.50,-0.50,-,-,-,-,-,-,-,-,-,-,-,-,-,-,-,-,-,-,-,-,-,-,-,-,-,-,-,-,-,-,-,-,-,-,-,-,-,-
2025-05-01 14:54:18.904,MovementStep,Unknown,0,Unknown,-,0,Practice_HighLowRatio,2,3,5,-,-,Pending,-,-,-,-,-,70.713,71.449,0.736,True,5,-6.50,-0.50,-5.50,-0.50,-,-,0.147,False,-,-,-,-,-,-,-,-,-,-,-,-,-,-,-,-,-,-,-,-,-,-,-,-,-,-,-,-,-,-,-,-
2025-05-01 14:54:19.598,MovementStart,Unknown,0,Unknown,-,0,-,2,-,-,-,-,-,-,-,-,-,-,-,-,-,-,-,-5.50,-0.50,-,-,-,-,-,-,-,-,-,-,-,-,-,-,-,-,-,-,-,-,-,-,-,-,-,-,-,-,-,-,-,-,-,-,-,-,-,-
2025-05-01 14:54:19.698,MovementStep,Unknown,0,Unknown,-,0,Practice_HighLowRatio,2,3,5,-,-,Pending,-,-,-,-,-,71.502,72.243,0.741,True,5,-5.50,-0.50,-4.50,-0.50,-,-,0.148,False,-,-,-,-,-,-,-,-,-,-,-,-,-,-,-,-,-,-,-,-,-,-,-,-,-,-,-,-,-,-,-,-
2025-05-01 14:54:20.412,MovementStart,Unknown,0,Unknown,-,0,-,2,-,-,-,-,-,-,-,-,-,-,-,-,-,-,-,-4.50,-0.50,-,-,-,-,-,-,-,-,-,-,-,-,-,-,-,-,-,-,-,-,-,-,-,-,-,-,-,-,-,-,-,-,-,-,-,-,-,-
2025-05-01 14:54:20.512,MovementStep,Unknown,0,Unknown,-,0,Practice_HighLowRatio,2,3,5,-,-,Pending,-,-,-,-,-,72.308,73.058,0.749,True,5,-4.50,-0.50,-3.50,-0.50,-,-,0.150,False,-,-,-,-,-,-,-,-,-,-,-,-,-,-,-,-,-,-,-,-,-,-,-,-,-,-,-,-,-,-,-,-
2025-05-01 14:54:21.279,MovementStart,Unknown,0,Unknown,-,0,-,2,-,-,-,-,-,-,-,-,-,-,-,-,-,-,-,-3.50,-0.50,-,-,-,-,-,-,-,-,-,-,-,-,-,-,-,-,-,-,-,-,-,-,-,-,-,-,-,-,-,-,-,-,-,-,-,-,-,-
2025-05-01 14:54:21.379,MovementStep,Unknown,0,Unknown,-,0,Practice_HighLowRatio,2,3,5,-,-,Pending,-,-,-,-,-,73.112,73.924,0.813,True,5,-3.51,-0.50,-2.51,-0.50,-,-,0.163,False,-,-,-,-,-,-,-,-,-,-,-,-,-,-,-,-,-,-,-,-,-,-,-,-,-,-,-,-,-,-,-,-
2025-05-01 14:54:21.718,MovementDuration,Unknown,0,Unknown,-,-,-,2,-,-,-,-,Failure,-,-,-,-,3.551,-,-,-,-,-,-,-,-,-,-,-,-,-,-,-,-,-,-,-,-,-,-,-,-,-,-,-,-,-,-,-,-,-,-,-,-,-,-,-,-,-,-,-,-,-
2025-05-01 14:54:21.719,OutcomeType,Unknown,0,Unknown,-,-,-,2,-,-,-,-,Failure,-,-,-,-,-,-,-,-,-,-,-,-,-,-,-,-,-,-,-,-,-,-,-,-,-,-,-,-,-,-,-,-,-,-,-,-,-,-,-,-,-,-,-,-,-,-,-,-,-,-
2025-05-01 14:54:21.719,RewardCollected,Unknown,0,Unknown,-,-,-,2,-,-,-,-,-,-,-,-,-,-,-,-,-,-,-,-,-,-,-,-,-,-,-,-,-,-,-,-,-,-,-,-,-,-,-,-,-,-,-,-,-,-,-,-,-,-,-,-,-,-,-,-,-,-,-
2025-05-01 14:54:21.719,ButtonPresses,Unknown,0,Unknown,-,-,-,2,-,-,-,-,-,-,-,-,-,-,-,-,-,-,-,-,-,-,-,22,1.431:right|1.605:right|1.762:right|1.911:right|2.067:right|2.220:right|2.374:right|2.525:right|2.687:right|2.861:right|3.026:right|3.194:right|3.345:right|3.510:right|3.675:right|3.830:right|4.006:right|4.184:right|4.370:right|4.542:right|4.704:right|4.880:right,-,-,-,-,-,-,-,-,-,-,-,-,-,-,-,-,-,-,-,-,-,-,-,-,-,-,-,-,-,-,-,-,-,-
2025-05-01 14:54:21.722,DecisionOutcome,Unknown,0,Unknown,True,0,Practice_HighLowRatio,2,3,5,Work,0.536,Failure,False,0,0,0,3.551,-,-,-,-,-,-,-,-,-,22,1.431:right|1.605:right|1.762:right|1.911:right|2.067:right|2.220:right|2.374:right|2.525:right|2.687:right|2.861:right|3.026:right|3.194:right|3.345:right|3.510:right|3.675:right|3.830:right|4.006:right|4.184:right|4.370:right|4.542:right|4.704:right|4.880:right,0.161,False,0.1,-,-,0.00,0.00,0,0,-,-,-,-,-,-,-,-,-,-,-,-,-,-,-,-,-,-,-,-,-,-,-,-,-
2025-05-01 14:54:21.722,ButtonPresses,Unknown,0,Unknown,-,-,-,2,-,-,-,-,-,-,-,-,-,-,-,-,-,-,-,-,-,-,-,22,1.431:right|1.605:right|1.762:right|1.911:right|2.067:right|2.220:right|2.374:right|2.525:right|2.687:right|2.861:right|3.026:right|3.194:right|3.345:right|3.510:right|3.675:right|3.830:right|4.006:right|4.184:right|4.370:right|4.542:right|4.704:right|4.880:right,-,-,-,-,-,-,-,-,-,-,-,-,-,-,-,-,-,-,-,-,-,-,-,-,-,-,-,-,-,-,-,-,-,-
2025-05-01 14:54:21.723,MovementComplete,Unknown,0,Unknown,-,-,-,2,-,-,-,-,-,False,-,-,-,-,-,-,-,-,-,-,-,-,-,-,-,-,-,-,-,-,-,-,-,-,-,-,-,-,-,-,-,-,-,-,-,-,-,-,-,-,-,-,-,-,-,-,-,-,-
2025-05-01 14:54:21.723,RewardCollected,Unknown,0,Unknown,-,-,-,2,-,-,-,-,-,-,-,-,-,-,-,-,-,-,-,-,-,-,-,-,-,-,-,-,-,-,-,-,-,-,-,-,-,-,-,-,-,-,-,-,-,-,-,-,-,-,-,-,-,-,-,-,-,-,-
2025-05-01 14:54:21.884,PracticeTrialStart,Unknown,0,Unknown,-,1,HighLowRatio,3,-,-,-,-,-,-,-,-,-,-,-,-,-,-,-,-,-,-,-,-,-,-,-,-,-,-,-,-,-,-,-,-,-,-,-,-,-,-,-,-,-,-,-,-,-,-,-,-,-,-,-,-,-,-,-
2025-05-01 14:54:21.903,InfoMessage,Unknown,0,Unknown,-,-,-,-,-,-,-,-,-,-,-,-,-,-,-,-,-,-,-,-,-,-,-,-,-,-,-,-,-,-,-,-,-,-,-,-,-,-,-,-,-,-,-,-,-,-,-,-,-,-,-,-,-,-,-,-,-,-,-
2025-05-01 14:54:23.935,PracticeTrialStart,Unknown,0,Unknown,True,0,-,3,-,-,-,-,-,-,-,-,-,-,-,-,-,-,-,-,-,-,-,-,-,-,-,-,-,-,-,-,-,-,-,-,-,-,-,-,-,-,-,-,-,-,-,-,-,-,-,-,-,-,-,-,-,-,-
2025-05-01 14:54:25.005,MovementStart,Unknown,0,Unknown,-,0,-,3,-,-,-,-,-,-,-,-,-,-,-,-,-,-,-,-5.50,-0.50,-,-,-,-,-,-,-,-,-,-,-,-,-,-,-,-,-,-,-,-,-,-,-,-,-,-,-,-,-,-,-,-,-,-,-,-,-,-
2025-05-01 14:54:25.105,MovementStep,Unknown,0,Unknown,-,0,Practice_HighLowRatio,3,2,3,-,-,Pending,-,-,-,-,-,76.739,77.195,0.456,True,3,-5.50,-0.50,-4.50,-0.50,-,-,0.152,False,-,-,-,-,-,-,-,-,-,-,-,-,-,-,-,-,-,-,-,-,-,-,-,-,-,-,-,-,-,-,-,-
2025-05-01 14:54:25.460,MovementStart,Unknown,0,Unknown,-,0,-,3,-,-,-,-,-,-,-,-,-,-,-,-,-,-,-,-4.50,-0.50,-,-,-,-,-,-,-,-,-,-,-,-,-,-,-,-,-,-,-,-,-,-,-,-,-,-,-,-,-,-,-,-,-,-,-,-,-,-
2025-05-01 14:54:25.560,MovementStep,Unknown,0,Unknown,-,0,Practice_HighLowRatio,3,2,3,-,-,Pending,-,-,-,-,-,77.241,77.649,0.408,True,3,-4.50,-0.50,-3.50,-0.50,-,-,0.136,False,-,-,-,-,-,-,-,-,-,-,-,-,-,-,-,-,-,-,-,-,-,-,-,-,-,-,-,-,-,-,-,-
2025-05-01 14:54:25.913,MovementStart,Unknown,0,Unknown,-,0,-,3,-,-,-,-,-,-,-,-,-,-,-,-,-,-,-,-3.50,-0.50,-,-,-,-,-,-,-,-,-,-,-,-,-,-,-,-,-,-,-,-,-,-,-,-,-,-,-,-,-,-,-,-,-,-,-,-,-,-
2025-05-01 14:54:26.014,MovementStep,Unknown,0,Unknown,-,0,Practice_HighLowRatio,3,2,3,-,-,Pending,-,-,-,-,-,77.702,78.103,0.401,True,3,-3.50,-0.50,-2.50,-0.50,-,-,0.134,False,-,-,-,-,-,-,-,-,-,-,-,-,-,-,-,-,-,-,-,-,-,-,-,-,-,-,-,-,-,-,-,-
2025-05-01 14:54:26.369,MovementStart,Unknown,0,Unknown,-,0,-,3,-,-,-,-,-,-,-,-,-,-,-,-,-,-,-,-2.50,-0.50,-,-,-,-,-,-,-,-,-,-,-,-,-,-,-,-,-,-,-,-,-,-,-,-,-,-,-,-,-,-,-,-,-,-,-,-,-,-
2025-05-01 14:54:26.469,MovementStep,Unknown,0,Unknown,-,0,Practice_HighLowRatio,3,2,3,-,-,Pending,-,-,-,-,-,78.149,78.558,0.409,True,3,-2.50,-0.50,-1.50,-0.50,-,-,0.136,False,-,-,-,-,-,-,-,-,-,-,-,-,-,-,-,-,-,-,-,-,-,-,-,-,-,-,-,-,-,-,-,-
2025-05-01 14:54:26.835,MovementStart,Unknown,0,Unknown,-,0,-,3,-,-,-,-,-,-,-,-,-,-,-,-,-,-,-,-1.50,-0.50,-,-,-,-,-,-,-,-,-,-,-,-,-,-,-,-,-,-,-,-,-,-,-,-,-,-,-,-,-,-,-,-,-,-,-,-,-,-
2025-05-01 14:54:26.852,ScoreUpdate,Unknown,0,Unknown,True,0,-,3,-,-,-,-,-,-,10,0,40,-,-,-,-,-,-,-,-,-,-,-,-,-,-,-,-,-,-,-,-,-,-,-,-,-,-,-,-,-,-,-,-,-,-,-,-,-,-,-,-,-,-,-,-,-,-
2025-05-01 14:54:26.853,CollisionTime,Unknown,0,Unknown,True,0,-,3,-,-,-,-,-,-,-,-,-,2.201,-,-,-,-,-,-,-,-,-,-,-,-,-,-,-,-,-,-,-,-,-,-,-,-,-,-,-,-,-,-,-,-,-,-,-,-,-,-,-,-,-,-,-,-,-
2025-05-01 14:54:26.854,MovementDuration,Unknown,0,Unknown,-,-,-,3,-,-,-,-,Success,-,-,-,-,2.201,-,-,-,-,-,-,-,-,-,-,-,-,-,-,-,-,-,-,-,-,-,-,-,-,-,-,-,-,-,-,-,-,-,-,-,-,-,-,-,-,-,-,-,-,-
2025-05-01 14:54:26.856,DecisionOutcome,Unknown,0,Unknown,True,0,Practice_HighLowRatio,3,2,3,Work,0.630,Success,True,10,0,0,2.201,-,-,-,-,-,-,-,-,-,15,0.608:right|0.807:right|0.963:right|1.110:right|1.264:right|1.418:right|1.571:right|1.722:right|1.872:right|2.018:right|2.171:right|2.328:right|2.480:right|2.628:right|2.793:right,0.147,False,0.1,-,-,0.00,0.00,0,0,-,-,-,-,-,-,-,-,-,-,-,-,-,-,-,-,-,-,-,-,-,-,-,-,-
2025-05-01 14:54:26.860,MovementComplete,Unknown,0,Unknown,-,-,-,3,-,-,-,-,-,True,-,-,-,-,-,-,-,-,-,-,-,-,-,-,-,-,-,-,-,-,-,-,-,-,-,-,-,-,-,-,-,-,-,-,-,-,-,-,-,-,-,-,-,-,-,-,-,-,-
2025-05-01 14:54:26.860,RewardCollected,Unknown,0,Unknown,-,-,-,3,-,-,-,-,-,-,-,-,-,-,-,-,-,-,-,-,-,-,-,-,-,-,-,-,-,-,-,-,-,-,-,-,-,-,-,-,-,-,-,-,-,-,-,-,-,-,-,-,-,-,-,-,-,-,-
2025-05-01 14:54:26.862,OutcomeType,Unknown,0,Unknown,-,-,-,3,-,-,-,-,Success,-,-,-,-,-,-,-,-,-,-,-,-,-,-,-,-,-,-,-,-,-,-,-,-,-,-,-,-,-,-,-,-,-,-,-,-,-,-,-,-,-,-,-,-,-,-,-,-,-,-
2025-05-01 14:54:26.862,RewardCollected,Unknown,0,Unknown,-,-,-,3,-,-,-,-,-,-,-,-,-,-,-,-,-,-,-,-,-,-,-,-,-,-,-,-,-,-,-,-,-,-,-,-,-,-,-,-,-,-,-,-,-,-,-,-,-,-,-,-,-,-,-,-,-,-,-
2025-05-01 14:54:26.866,ButtonPresses,Unknown,0,Unknown,-,-,-,3,-,-,-,-,-,-,-,-,-,-,-,-,-,-,-,-,-,-,-,15,0.608:right|0.807:right|0.963:right|1.110:right|1.264:right|1.418:right|1.571:right|1.722:right|1.872:right|2.018:right|2.171:right|2.328:right|2.480:right|2.628:right|2.793:right,-,-,-,-,-,-,-,-,-,-,-,-,-,-,-,-,-,-,-,-,-,-,-,-,-,-,-,-,-,-,-,-,-,-
2025-05-01 14:54:26.934,MovementStep,Unknown,0,Unknown,-,0,Practice_HighLowRatio,3,2,3,-,-,Success,-,-,-,-,-,78.611,79.024,0.412,True,3,-1.51,-0.50,-0.51,-0.50,-,-,0.137,False,-,-,-,-,-,-,-,-,-,-,-,-,-,-,-,-,-,-,-,-,-,-,-,-,-,-,-,-,-,-,-,-
2025-05-01 14:54:29.161,PracticeTrialStart,Unknown,0,Unknown,-,1,HighLowRatio,4,-,-,-,-,-,-,-,-,-,-,-,-,-,-,-,-,-,-,-,-,-,-,-,-,-,-,-,-,-,-,-,-,-,-,-,-,-,-,-,-,-,-,-,-,-,-,-,-,-,-,-,-,-,-,-
2025-05-01 14:54:29.177,InfoMessage,Unknown,0,Unknown,-,-,-,-,-,-,-,-,-,-,-,-,-,-,-,-,-,-,-,-,-,-,-,-,-,-,-,-,-,-,-,-,-,-,-,-,-,-,-,-,-,-,-,-,-,-,-,-,-,-,-,-,-,-,-,-,-,-,-
2025-05-01 14:54:31.344,PracticeTrialStart,Unknown,0,Unknown,True,0,-,4,-,-,-,-,-,-,-,-,-,-,-,-,-,-,-,-,-,-,-,-,-,-,-,-,-,-,-,-,-,-,-,-,-,-,-,-,-,-,-,-,-,-,-,-,-,-,-,-,-,-,-,-,-,-,-
2025-05-01 14:54:32.068,MovementStart,Unknown,0,Unknown,-,0,-,4,-,-,-,-,-,-,-,-,-,-,-,-,-,-,-,0.50,1.50,-,-,-,-,-,-,-,-,-,-,-,-,-,-,-,-,-,-,-,-,-,-,-,-,-,-,-,-,-,-,-,-,-,-,-,-,-,-
2025-05-01 14:54:32.168,MovementStep,Unknown,0,Unknown,-,0,Practice_HighLowRatio,4,1,1,-,-,Pending,-,-,-,-,-,83.733,83.833,0.100,True,1,0.50,1.50,1.50,1.50,-,-,0.100,False,-,-,-,-,-,-,-,-,-,-,-,-,-,-,-,-,-,-,-,-,-,-,-,-,-,-,-,-,-,-,-,-
2025-05-01 14:54:32.268,MovementStart,Unknown,0,Unknown,-,0,-,4,-,-,-,-,-,-,-,-,-,-,-,-,-,-,-,1.50,1.50,-,-,-,-,-,-,-,-,-,-,-,-,-,-,-,-,-,-,-,-,-,-,-,-,-,-,-,-,-,-,-,-,-,-,-,-,-,-
2025-05-01 14:54:32.368,MovementStep,Unknown,0,Unknown,-,0,Practice_HighLowRatio,4,1,1,-,-,Pending,-,-,-,-,-,83.932,84.033,0.100,True,1,1.50,1.50,2.50,1.50,-,-,0.100,False,-,-,-,-,-,-,-,-,-,-,-,-,-,-,-,-,-,-,-,-,-,-,-,-,-,-,-,-,-,-,-,-
2025-05-01 14:54:32.422,MovementStart,Unknown,0,Unknown,-,0,-,4,-,-,-,-,-,-,-,-,-,-,-,-,-,-,-,2.50,1.50,-,-,-,-,-,-,-,-,-,-,-,-,-,-,-,-,-,-,-,-,-,-,-,-,-,-,-,-,-,-,-,-,-,-,-,-,-,-
2025-05-01 14:54:32.522,MovementStep,Unknown,0,Unknown,-,0,Practice_HighLowRatio,4,1,1,-,-,Pending,-,-,-,-,-,84.087,84.187,0.100,True,1,2.50,1.50,3.50,1.50,-,-,0.100,False,-,-,-,-,-,-,-,-,-,-,-,-,-,-,-,-,-,-,-,-,-,-,-,-,-,-,-,-,-,-,-,-
2025-05-01 14:54:32.569,MovementStart,Unknown,0,Unknown,-,0,-,4,-,-,-,-,-,-,-,-,-,-,-,-,-,-,-,3.50,1.50,-,-,-,-,-,-,-,-,-,-,-,-,-,-,-,-,-,-,-,-,-,-,-,-,-,-,-,-,-,-,-,-,-,-,-,-,-,-
2025-05-01 14:54:32.669,MovementStep,Unknown,0,Unknown,-,0,Practice_HighLowRatio,4,1,1,-,-,Pending,-,-,-,-,-,84.234,84.333,0.099,True,1,3.50,1.50,4.50,1.50,-,-,0.099,True,-,-,-,-,-,-,-,-,-,-,-,-,-,-,-,-,-,-,-,-,-,-,-,-,-,-,-,-,-,-,-,-
2025-05-01 14:54:32.689,MovementStart,Unknown,0,Unknown,-,0,-,4,-,-,-,-,-,-,-,-,-,-,-,-,-,-,-,4.50,1.50,-,-,-,-,-,-,-,-,-,-,-,-,-,-,-,-,-,-,-,-,-,-,-,-,-,-,-,-,-,-,-,-,-,-,-,-,-,-
2025-05-01 14:54:32.717,ScoreUpdate,Unknown,0,Unknown,True,0,-,4,-,-,-,-,-,-,10,0,50,-,-,-,-,-,-,-,-,-,-,-,-,-,-,-,-,-,-,-,-,-,-,-,-,-,-,-,-,-,-,-,-,-,-,-,-,-,-,-,-,-,-,-,-,-,-
2025-05-01 14:54:32.718,CollisionTime,Unknown,0,Unknown,True,0,-,4,-,-,-,-,-,-,-,-,-,0.647,-,-,-,-,-,-,-,-,-,-,-,-,-,-,-,-,-,-,-,-,-,-,-,-,-,-,-,-,-,-,-,-,-,-,-,-,-,-,-,-,-,-,-,-,-
2025-05-01 14:54:32.719,MovementDuration,Unknown,0,Unknown,-,-,-,4,-,-,-,-,Success,-,-,-,-,0.647,-,-,-,-,-,-,-,-,-,-,-,-,-,-,-,-,-,-,-,-,-,-,-,-,-,-,-,-,-,-,-,-,-,-,-,-,-,-,-,-,-,-,-,-,-
2025-05-01 14:54:32.721,DecisionOutcome,Unknown,0,Unknown,True,0,Practice_HighLowRatio,4,1,1,Work,0.774,Success,True,10,0,0,0.647,-,-,-,-,-,-,-,-,-,5,0.619:right|0.818:right|0.973:right|1.120:right|1.239:right,0.129,False,0.1,-,-,0.00,0.00,0,0,-,-,-,-,-,-,-,-,-,-,-,-,-,-,-,-,-,-,-,-,-,-,-,-,-
2025-05-01 14:54:32.721,MovementComplete,Unknown,0,Unknown,-,-,-,4,-,-,-,-,-,True,-,-,-,-,-,-,-,-,-,-,-,-,-,-,-,-,-,-,-,-,-,-,-,-,-,-,-,-,-,-,-,-,-,-,-,-,-,-,-,-,-,-,-,-,-,-,-,-,-
2025-05-01 14:54:32.722,RewardCollected,Unknown,0,Unknown,-,-,-,4,-,-,-,-,-,-,-,-,-,-,-,-,-,-,-,-,-,-,-,-,-,-,-,-,-,-,-,-,-,-,-,-,-,-,-,-,-,-,-,-,-,-,-,-,-,-,-,-,-,-,-,-,-,-,-
2025-05-01 14:54:32.722,OutcomeType,Unknown,0,Unknown,-,-,-,4,-,-,-,-,Success,-,-,-,-,-,-,-,-,-,-,-,-,-,-,-,-,-,-,-,-,-,-,-,-,-,-,-,-,-,-,-,-,-,-,-,-,-,-,-,-,-,-,-,-,-,-,-,-,-,-
2025-05-01 14:54:32.722,RewardCollected,Unknown,0,Unknown,-,-,-,4,-,-,-,-,-,-,-,-,-,-,-,-,-,-,-,-,-,-,-,-,-,-,-,-,-,-,-,-,-,-,-,-,-,-,-,-,-,-,-,-,-,-,-,-,-,-,-,-,-,-,-,-,-,-,-
2025-05-01 14:54:32.723,ButtonPresses,Unknown,0,Unknown,-,-,-,4,-,-,-,-,-,-,-,-,-,-,-,-,-,-,-,-,-,-,-,5,0.619:right|0.818:right|0.973:right|1.120:right|1.239:right,-,-,-,-,-,-,-,-,-,-,-,-,-,-,-,-,-,-,-,-,-,-,-,-,-,-,-,-,-,-,-,-,-,-
2025-05-01 14:54:32.789,MovementStep,Unknown,0,Unknown,-,0,Practice_HighLowRatio,4,1,1,-,-,Success,-,-,-,-,-,84.353,84.454,0.100,True,1,4.50,1.50,5.50,1.50,-,-,0.100,False,-,-,-,-,-,-,-,-,-,-,-,-,-,-,-,-,-,-,-,-,-,-,-,-,-,-,-,-,-,-,-,-
2025-05-01 14:54:36.577,PracticeTrialStart,Unknown,0,Unknown,-,1,HighLowRatio,5,-,-,-,-,-,-,-,-,-,-,-,-,-,-,-,-,-,-,-,-,-,-,-,-,-,-,-,-,-,-,-,-,-,-,-,-,-,-,-,-,-,-,-,-,-,-,-,-,-,-,-,-,-,-,-
2025-05-01 14:54:36.594,InfoMessage,Unknown,0,Unknown,-,-,-,-,-,-,-,-,-,-,-,-,-,-,-,-,-,-,-,-,-,-,-,-,-,-,-,-,-,-,-,-,-,-,-,-,-,-,-,-,-,-,-,-,-,-,-,-,-,-,-,-,-,-,-,-,-,-,-
2025-05-01 14:54:37.051,DecisionOutcome,Unknown,0,Unknown,True,0,Practice_HighLowRatio,5,1,1,Skip,0.469,Skip,False,0,0,0,0.000,-,-,-,-,-,-,-,-,-,0,-,-1.000,False,0.1,Skip,3,0.00,0.00,0,0,-,-,-,-,-,-,-,-,-,-,-,-,-,-,-,-,-,-,-,-,-,-,-,-,-
2025-05-01 14:54:37.053,ScoreUpdate,Unknown,0,Unknown,True,0,-,5,-,-,-,-,-,-,0,0,50,-,-,-,-,-,-,-,-,-,-,-,-,-,-,-,-,-,-,-,-,-,-,-,-,-,-,-,-,-,-,-,-,-,-,-,-,-,-,-,-,-,-,-,-,-,-
2025-05-01 14:54:41.321,PracticeTrialStart,Unknown,0,Unknown,-,2,LowHighRatio,1,-,-,-,-,-,-,-,-,-,-,-,-,-,-,-,-,-,-,-,-,-,-,-,-,-,-,-,-,-,-,-,-,-,-,-,-,-,-,-,-,-,-,-,-,-,-,-,-,-,-,-,-,-,-,-
2025-05-01 14:54:41.338,InfoMessage,Unknown,0,Unknown,-,-,-,-,-,-,-,-,-,-,-,-,-,-,-,-,-,-,-,-,-,-,-,-,-,-,-,-,-,-,-,-,-,-,-,-,-,-,-,-,-,-,-,-,-,-,-,-,-,-,-,-,-,-,-,-,-,-,-
2025-05-01 14:54:43.602,PracticeTrialStart,Unknown,0,Unknown,True,0,-,1,-,-,-,-,-,-,-,-,-,-,-,-,-,-,-,-,-,-,-,-,-,-,-,-,-,-,-,-,-,-,-,-,-,-,-,-,-,-,-,-,-,-,-,-,-,-,-,-,-,-,-,-,-,-,-
2025-05-01 14:54:45.100,MovementStart,Unknown,0,Unknown,-,0,-,1,-,-,-,-,-,-,-,-,-,-,-,-,-,-,-,-0.50,-3.50,-,-,-,-,-,-,-,-,-,-,-,-,-,-,-,-,-,-,-,-,-,-,-,-,-,-,-,-,-,-,-,-,-,-,-,-,-,-
2025-05-01 14:54:45.200,MovementStep,Unknown,0,Unknown,-,0,Practice_LowHighRatio,1,3,5,-,-,Pending,-,-,-,-,-,95.392,96.112,0.721,True,5,-0.50,-3.50,-1.50,-3.50,-,-,0.144,False,-,-,-,-,-,-,-,-,-,-,-,-,-,-,-,-,-,-,-,-,-,-,-,-,-,-,-,-,-,-,-,-
2025-05-01 14:54:45.864,MovementStart,Unknown,0,Unknown,-,0,-,1,-,-,-,-,-,-,-,-,-,-,-,-,-,-,-,-1.50,-3.50,-,-,-,-,-,-,-,-,-,-,-,-,-,-,-,-,-,-,-,-,-,-,-,-,-,-,-,-,-,-,-,-,-,-,-,-,-,-
2025-05-01 14:54:45.964,MovementStep,Unknown,0,Unknown,-,0,Practice_LowHighRatio,1,3,5,-,-,Pending,-,-,-,-,-,96.167,96.876,0.709,True,5,-1.50,-3.50,-2.50,-3.50,-,-,0.142,False,-,-,-,-,-,-,-,-,-,-,-,-,-,-,-,-,-,-,-,-,-,-,-,-,-,-,-,-,-,-,-,-
2025-05-01 14:54:46.630,MovementStart,Unknown,0,Unknown,-,0,-,1,-,-,-,-,-,-,-,-,-,-,-,-,-,-,-,-2.50,-3.50,-,-,-,-,-,-,-,-,-,-,-,-,-,-,-,-,-,-,-,-,-,-,-,-,-,-,-,-,-,-,-,-,-,-,-,-,-,-
2025-05-01 14:54:46.730,MovementStep,Unknown,0,Unknown,-,0,Practice_LowHighRatio,1,3,5,-,-,Pending,-,-,-,-,-,96.942,97.642,0.700,True,5,-2.50,-3.50,-3.50,-3.50,-,-,0.140,False,-,-,-,-,-,-,-,-,-,-,-,-,-,-,-,-,-,-,-,-,-,-,-,-,-,-,-,-,-,-,-,-
2025-05-01 14:54:47.380,MovementStart,Unknown,0,Unknown,-,0,-,1,-,-,-,-,-,-,-,-,-,-,-,-,-,-,-,-3.50,-3.50,-,-,-,-,-,-,-,-,-,-,-,-,-,-,-,-,-,-,-,-,-,-,-,-,-,-,-,-,-,-,-,-,-,-,-,-,-,-
2025-05-01 14:54:47.480,MovementStep,Unknown,0,Unknown,-,0,Practice_LowHighRatio,1,3,5,-,-,Pending,-,-,-,-,-,97.693,98.392,0.699,True,5,-3.50,-3.50,-4.50,-3.50,-,-,0.140,False,-,-,-,-,-,-,-,-,-,-,-,-,-,-,-,-,-,-,-,-,-,-,-,-,-,-,-,-,-,-,-,-
2025-05-01 14:54:48.168,MovementStart,Unknown,0,Unknown,-,0,-,1,-,-,-,-,-,-,-,-,-,-,-,-,-,-,-,-4.50,-3.50,-,-,-,-,-,-,-,-,-,-,-,-,-,-,-,-,-,-,-,-,-,-,-,-,-,-,-,-,-,-,-,-,-,-,-,-,-,-
2025-05-01 14:54:48.190,ScoreUpdate,Unknown,0,Unknown,True,0,-,1,-,-,-,-,-,-,10,0,60,-,-,-,-,-,-,-,-,-,-,-,-,-,-,-,-,-,-,-,-,-,-,-,-,-,-,-,-,-,-,-,-,-,-,-,-,-,-,-,-,-,-,-,-,-,-
2025-05-01 14:54:48.191,CollisionTime,Unknown,0,Unknown,True,0,-,1,-,-,-,-,-,-,-,-,-,3.708,-,-,-,-,-,-,-,-,-,-,-,-,-,-,-,-,-,-,-,-,-,-,-,-,-,-,-,-,-,-,-,-,-,-,-,-,-,-,-,-,-,-,-,-,-
2025-05-01 14:54:48.191,MovementDuration,Unknown,0,Unknown,-,-,-,1,-,-,-,-,Success,-,-,-,-,3.708,-,-,-,-,-,-,-,-,-,-,-,-,-,-,-,-,-,-,-,-,-,-,-,-,-,-,-,-,-,-,-,-,-,-,-,-,-,-,-,-,-,-,-,-,-
2025-05-01 14:54:48.193,DecisionOutcome,Unknown,0,Unknown,True,0,Practice_LowHighRatio,1,3,5,Work,0.840,Success,True,10,0,0,3.708,-,-,-,-,-,-,-,-,-,25,0.772:left|0.961:left|1.108:left|1.252:left|1.392:left|1.547:left|1.699:left|1.855:left|2.004:left|2.156:left|2.322:left|2.465:left|2.606:left|2.756:left|2.922:left|3.073:left|3.234:left|3.385:left|3.522:left|3.672:left|3.831:left|3.982:left|4.137:left|4.299:left|4.460:left,0.148,False,0.1,-,-,0.00,0.00,0,0,-,-,-,-,-,-,-,-,-,-,-,-,-,-,-,-,-,-,-,-,-,-,-,-,-
2025-05-01 14:54:48.194,MovementComplete,Unknown,0,Unknown,-,-,-,1,-,-,-,-,-,True,-,-,-,-,-,-,-,-,-,-,-,-,-,-,-,-,-,-,-,-,-,-,-,-,-,-,-,-,-,-,-,-,-,-,-,-,-,-,-,-,-,-,-,-,-,-,-,-,-
2025-05-01 14:54:48.194,RewardCollected,Unknown,0,Unknown,-,-,-,1,-,-,-,-,-,-,-,-,-,-,-,-,-,-,-,-,-,-,-,-,-,-,-,-,-,-,-,-,-,-,-,-,-,-,-,-,-,-,-,-,-,-,-,-,-,-,-,-,-,-,-,-,-,-,-
2025-05-01 14:54:48.195,OutcomeType,Unknown,0,Unknown,-,-,-,1,-,-,-,-,Success,-,-,-,-,-,-,-,-,-,-,-,-,-,-,-,-,-,-,-,-,-,-,-,-,-,-,-,-,-,-,-,-,-,-,-,-,-,-,-,-,-,-,-,-,-,-,-,-,-,-
2025-05-01 14:54:48.195,RewardCollected,Unknown,0,Unknown,-,-,-,1,-,-,-,-,-,-,-,-,-,-,-,-,-,-,-,-,-,-,-,-,-,-,-,-,-,-,-,-,-,-,-,-,-,-,-,-,-,-,-,-,-,-,-,-,-,-,-,-,-,-,-,-,-,-,-
2025-05-01 14:54:48.195,ButtonPresses,Unknown,0,Unknown,-,-,-,1,-,-,-,-,-,-,-,-,-,-,-,-,-,-,-,-,-,-,-,25,0.772:left|0.961:left|1.108:left|1.252:left|1.392:left|1.547:left|1.699:left|1.855:left|2.004:left|2.156:left|2.322:left|2.465:left|2.606:left|2.756:left|2.922:left|3.073:left|3.234:left|3.385:left|3.522:left|3.672:left|3.831:left|3.982:left|4.137:left|4.299:left|4.460:left,-,-,-,-,-,-,-,-,-,-,-,-,-,-,-,-,-,-,-,-,-,-,-,-,-,-,-,-,-,-,-,-,-,-
2025-05-01 14:54:48.269,MovementStep,Unknown,0,Unknown,-,0,Practice_LowHighRatio,1,3,5,-,-,Success,-,-,-,-,-,98.451,99.180,0.729,True,5,-4.50,-3.50,-5.50,-3.50,-,-,0.146,False,-,-,-,-,-,-,-,-,-,-,-,-,-,-,-,-,-,-,-,-,-,-,-,-,-,-,-,-,-,-,-,-
2025-05-01 14:54:48.831,PracticeTrialStart,Unknown,0,Unknown,-,2,LowHighRatio,2,-,-,-,-,-,-,-,-,-,-,-,-,-,-,-,-,-,-,-,-,-,-,-,-,-,-,-,-,-,-,-,-,-,-,-,-,-,-,-,-,-,-,-,-,-,-,-,-,-,-,-,-,-,-,-
2025-05-01 14:54:48.847,InfoMessage,Unknown,0,Unknown,-,-,-,-,-,-,-,-,-,-,-,-,-,-,-,-,-,-,-,-,-,-,-,-,-,-,-,-,-,-,-,-,-,-,-,-,-,-,-,-,-,-,-,-,-,-,-,-,-,-,-,-,-,-,-,-,-,-,-
2025-05-01 14:54:51.509,PracticeTrialStart,Unknown,0,Unknown,True,0,-,2,-,-,-,-,-,-,-,-,-,-,-,-,-,-,-,-,-,-,-,-,-,-,-,-,-,-,-,-,-,-,-,-,-,-,-,-,-,-,-,-,-,-,-,-,-,-,-,-,-,-,-,-,-,-,-
2025-05-01 14:54:52.514,MovementStart,Unknown,0,Unknown,-,0,-,2,-,-,-,-,-,-,-,-,-,-,-,-,-,-,-,7.50,-3.50,-,-,-,-,-,-,-,-,-,-,-,-,-,-,-,-,-,-,-,-,-,-,-,-,-,-,-,-,-,-,-,-,-,-,-,-,-,-
2025-05-01 14:54:52.614,MovementStep,Unknown,0,Unknown,-,0,Practice_LowHighRatio,2,2,3,-,-,Pending,-,-,-,-,-,102.633,103.100,0.467,True,3,7.50,-3.50,6.50,-3.50,-,-,0.156,False,-,-,-,-,-,-,-,-,-,-,-,-,-,-,-,-,-,-,-,-,-,-,-,-,-,-,-,-,-,-,-,-
2025-05-01 14:54:53.037,MovementStart,Unknown,0,Unknown,-,0,-,2,-,-,-,-,-,-,-,-,-,-,-,-,-,-,-,6.50,-3.50,-,-,-,-,-,-,-,-,-,-,-,-,-,-,-,-,-,-,-,-,-,-,-,-,-,-,-,-,-,-,-,-,-,-,-,-,-,-
2025-05-01 14:54:53.143,MovementStep,Unknown,0,Unknown,-,0,Practice_LowHighRatio,2,2,3,-,-,Pending,-,-,-,-,-,103.174,103.628,0.454,True,3,6.50,-3.50,5.50,-3.50,-,-,0.151,False,-,-,-,-,-,-,-,-,-,-,-,-,-,-,-,-,-,-,-,-,-,-,-,-,-,-,-,-,-,-,-,-
2025-05-01 14:54:53.588,MovementStart,Unknown,0,Unknown,-,0,-,2,-,-,-,-,-,-,-,-,-,-,-,-,-,-,-,5.50,-3.50,-,-,-,-,-,-,-,-,-,-,-,-,-,-,-,-,-,-,-,-,-,-,-,-,-,-,-,-,-,-,-,-,-,-,-,-,-,-
2025-05-01 14:54:53.690,MovementStep,Unknown,0,Unknown,-,0,Practice_LowHighRatio,2,2,3,-,-,Pending,-,-,-,-,-,103.711,104.173,0.462,True,3,5.50,-3.50,4.50,-3.50,-,-,0.154,False,-,-,-,-,-,-,-,-,-,-,-,-,-,-,-,-,-,-,-,-,-,-,-,-,-,-,-,-,-,-,-,-
2025-05-01 14:54:56.595,MovementDuration,Unknown,0,Unknown,-,-,-,2,-,-,-,-,Failure,-,-,-,-,4.448,-,-,-,-,-,-,-,-,-,-,-,-,-,-,-,-,-,-,-,-,-,-,-,-,-,-,-,-,-,-,-,-,-,-,-,-,-,-,-,-,-,-,-,-,-
2025-05-01 14:54:56.596,OutcomeType,Unknown,0,Unknown,-,-,-,2,-,-,-,-,Failure,-,-,-,-,-,-,-,-,-,-,-,-,-,-,-,-,-,-,-,-,-,-,-,-,-,-,-,-,-,-,-,-,-,-,-,-,-,-,-,-,-,-,-,-,-,-,-,-,-,-
2025-05-01 14:54:56.596,RewardCollected,Unknown,0,Unknown,-,-,-,2,-,-,-,-,-,-,-,-,-,-,-,-,-,-,-,-,-,-,-,-,-,-,-,-,-,-,-,-,-,-,-,-,-,-,-,-,-,-,-,-,-,-,-,-,-,-,-,-,-,-,-,-,-,-,-
2025-05-01 14:54:56.597,ButtonPresses,Unknown,0,Unknown,-,-,-,2,-,-,-,-,-,-,-,-,-,-,-,-,-,-,-,-,-,-,-,9,0.532:left|0.739:left|0.899:left|1.073:left|1.245:left|1.423:left|1.611:left|1.804:left|1.973:left,-,-,-,-,-,-,-,-,-,-,-,-,-,-,-,-,-,-,-,-,-,-,-,-,-,-,-,-,-,-,-,-,-,-
2025-05-01 14:54:56.599,DecisionOutcome,Unknown,0,Unknown,True,0,Practice_LowHighRatio,2,2,3,Work,1.268,Failure,False,0,0,0,4.448,-,-,-,-,-,-,-,-,-,9,0.532:left|0.739:left|0.899:left|1.073:left|1.245:left|1.423:left|1.611:left|1.804:left|1.973:left,0.494,False,0.1,-,-,0.00,0.00,0,0,-,-,-,-,-,-,-,-,-,-,-,-,-,-,-,-,-,-,-,-,-,-,-,-,-
2025-05-01 14:54:56.600,ButtonPresses,Unknown,0,Unknown,-,-,-,2,-,-,-,-,-,-,-,-,-,-,-,-,-,-,-,-,-,-,-,9,0.532:left|0.739:left|0.899:left|1.073:left|1.245:left|1.423:left|1.611:left|1.804:left|1.973:left,-,-,-,-,-,-,-,-,-,-,-,-,-,-,-,-,-,-,-,-,-,-,-,-,-,-,-,-,-,-,-,-,-,-
2025-05-01 14:54:56.600,MovementComplete,Unknown,0,Unknown,-,-,-,2,-,-,-,-,-,False,-,-,-,-,-,-,-,-,-,-,-,-,-,-,-,-,-,-,-,-,-,-,-,-,-,-,-,-,-,-,-,-,-,-,-,-,-,-,-,-,-,-,-,-,-,-,-,-,-
2025-05-01 14:54:56.600,RewardCollected,Unknown,0,Unknown,-,-,-,2,-,-,-,-,-,-,-,-,-,-,-,-,-,-,-,-,-,-,-,-,-,-,-,-,-,-,-,-,-,-,-,-,-,-,-,-,-,-,-,-,-,-,-,-,-,-,-,-,-,-,-,-,-,-,-
2025-05-01 14:54:56.756,PracticeTrialStart,Unknown,0,Unknown,-,2,LowHighRatio,3,-,-,-,-,-,-,-,-,-,-,-,-,-,-,-,-,-,-,-,-,-,-,-,-,-,-,-,-,-,-,-,-,-,-,-,-,-,-,-,-,-,-,-,-,-,-,-,-,-,-,-,-,-,-,-
2025-05-01 14:54:56.774,InfoMessage,Unknown,0,Unknown,-,-,-,-,-,-,-,-,-,-,-,-,-,-,-,-,-,-,-,-,-,-,-,-,-,-,-,-,-,-,-,-,-,-,-,-,-,-,-,-,-,-,-,-,-,-,-,-,-,-,-,-,-,-,-,-,-,-,-
2025-05-01 14:54:57.312,DecisionOutcome,Unknown,0,Unknown,True,0,Practice_LowHighRatio,3,1,1,Skip,0.550,Skip,False,0,0,0,0.000,-,-,-,-,-,-,-,-,-,0,-,-1.000,False,0.1,Skip,3,0.00,0.00,0,0,-,-,-,-,-,-,-,-,-,-,-,-,-,-,-,-,-,-,-,-,-,-,-,-,-
2025-05-01 14:54:57.314,ScoreUpdate,Unknown,0,Unknown,True,0,-,3,-,-,-,-,-,-,0,0,60,-,-,-,-,-,-,-,-,-,-,-,-,-,-,-,-,-,-,-,-,-,-,-,-,-,-,-,-,-,-,-,-,-,-,-,-,-,-,-,-,-,-,-,-,-,-
2025-05-01 14:55:00.454,PracticeTrialStart,Unknown,0,Unknown,-,2,LowHighRatio,4,-,-,-,-,-,-,-,-,-,-,-,-,-,-,-,-,-,-,-,-,-,-,-,-,-,-,-,-,-,-,-,-,-,-,-,-,-,-,-,-,-,-,-,-,-,-,-,-,-,-,-,-,-,-,-
2025-05-01 14:55:00.470,InfoMessage,Unknown,0,Unknown,-,-,-,-,-,-,-,-,-,-,-,-,-,-,-,-,-,-,-,-,-,-,-,-,-,-,-,-,-,-,-,-,-,-,-,-,-,-,-,-,-,-,-,-,-,-,-,-,-,-,-,-,-,-,-,-,-,-,-
2025-05-01 14:55:00.777,DecisionOutcome,Unknown,0,Unknown,True,0,Practice_LowHighRatio,4,2,3,Skip,0.320,Skip,False,0,0,0,0.000,-,-,-,-,-,-,-,-,-,0,-,-1.000,False,0.1,Skip,3,0.00,0.00,0,0,-,-,-,-,-,-,-,-,-,-,-,-,-,-,-,-,-,-,-,-,-,-,-,-,-
2025-05-01 14:55:00.779,ScoreUpdate,Unknown,0,Unknown,True,0,-,4,-,-,-,-,-,-,0,0,60,-,-,-,-,-,-,-,-,-,-,-,-,-,-,-,-,-,-,-,-,-,-,-,-,-,-,-,-,-,-,-,-,-,-,-,-,-,-,-,-,-,-,-,-,-,-
2025-05-01 14:55:03.959,PracticeTrialStart,Unknown,0,Unknown,-,2,LowHighRatio,5,-,-,-,-,-,-,-,-,-,-,-,-,-,-,-,-,-,-,-,-,-,-,-,-,-,-,-,-,-,-,-,-,-,-,-,-,-,-,-,-,-,-,-,-,-,-,-,-,-,-,-,-,-,-,-
2025-05-01 14:55:03.977,InfoMessage,Unknown,0,Unknown,-,-,-,-,-,-,-,-,-,-,-,-,-,-,-,-,-,-,-,-,-,-,-,-,-,-,-,-,-,-,-,-,-,-,-,-,-,-,-,-,-,-,-,-,-,-,-,-,-,-,-,-,-,-,-,-,-,-,-
2025-05-01 14:55:05.707,PracticeTrialStart,Unknown,0,Unknown,True,0,-,5,-,-,-,-,-,-,-,-,-,-,-,-,-,-,-,-,-,-,-,-,-,-,-,-,-,-,-,-,-,-,-,-,-,-,-,-,-,-,-,-,-,-,-,-,-,-,-,-,-,-,-,-,-,-,-
2025-05-01 14:55:07.141,MovementStart,Unknown,0,Unknown,-,0,-,5,-,-,-,-,-,-,-,-,-,-,-,-,-,-,-,-5.50,1.50,-,-,-,-,-,-,-,-,-,-,-,-,-,-,-,-,-,-,-,-,-,-,-,-,-,-,-,-,-,-,-,-,-,-,-,-,-,-
2025-05-01 14:55:07.241,MovementStep,Unknown,0,Unknown,-,0,Practice_LowHighRatio,5,3,5,-,-,Pending,-,-,-,-,-,116.243,116.955,0.712,True,5,-5.50,1.50,-4.50,1.50,-,-,0.142,False,-,-,-,-,-,-,-,-,-,-,-,-,-,-,-,-,-,-,-,-,-,-,-,-,-,-,-,-,-,-,-,-
2025-05-01 14:55:07.921,MovementStart,Unknown,0,Unknown,-,0,-,5,-,-,-,-,-,-,-,-,-,-,-,-,-,-,-,-4.50,1.50,-,-,-,-,-,-,-,-,-,-,-,-,-,-,-,-,-,-,-,-,-,-,-,-,-,-,-,-,-,-,-,-,-,-,-,-,-,-
2025-05-01 14:55:08.020,MovementStep,Unknown,0,Unknown,-,0,Practice_LowHighRatio,5,3,5,-,-,Pending,-,-,-,-,-,117.002,117.734,0.732,True,5,-4.50,1.50,-3.50,1.50,-,-,0.146,False,-,-,-,-,-,-,-,-,-,-,-,-,-,-,-,-,-,-,-,-,-,-,-,-,-,-,-,-,-,-,-,-
2025-05-01 14:55:08.769,MovementStart,Unknown,0,Unknown,-,0,-,5,-,-,-,-,-,-,-,-,-,-,-,-,-,-,-,-3.50,1.50,-,-,-,-,-,-,-,-,-,-,-,-,-,-,-,-,-,-,-,-,-,-,-,-,-,-,-,-,-,-,-,-,-,-,-,-,-,-
2025-05-01 14:55:08.869,MovementStep,Unknown,0,Unknown,-,0,Practice_LowHighRatio,5,3,5,-,-,Pending,-,-,-,-,-,117.804,118.584,0.780,True,5,-3.50,1.50,-2.50,1.50,-,-,0.156,False,-,-,-,-,-,-,-,-,-,-,-,-,-,-,-,-,-,-,-,-,-,-,-,-,-,-,-,-,-,-,-,-
2025-05-01 14:55:10.796,MovementDuration,Unknown,0,Unknown,-,-,-,5,-,-,-,-,Failure,-,-,-,-,4.267,-,-,-,-,-,-,-,-,-,-,-,-,-,-,-,-,-,-,-,-,-,-,-,-,-,-,-,-,-,-,-,-,-,-,-,-,-,-,-,-,-,-,-,-,-
2025-05-01 14:55:10.796,OutcomeType,Unknown,0,Unknown,-,-,-,5,-,-,-,-,Failure,-,-,-,-,-,-,-,-,-,-,-,-,-,-,-,-,-,-,-,-,-,-,-,-,-,-,-,-,-,-,-,-,-,-,-,-,-,-,-,-,-,-,-,-,-,-,-,-,-,-
2025-05-01 14:55:10.797,RewardCollected,Unknown,0,Unknown,-,-,-,5,-,-,-,-,-,-,-,-,-,-,-,-,-,-,-,-,-,-,-,-,-,-,-,-,-,-,-,-,-,-,-,-,-,-,-,-,-,-,-,-,-,-,-,-,-,-,-,-,-,-,-,-,-,-,-
2025-05-01 14:55:10.797,ButtonPresses,Unknown,0,Unknown,-,-,-,5,-,-,-,-,-,-,-,-,-,-,-,-,-,-,-,-,-,-,-,17,0.711:right|0.874:right|1.036:right|1.179:right|1.323:right|1.470:right|1.620:right|1.782:right|1.944:right|2.103:right|2.272:right|2.435:right|2.603:right|2.774:right|2.951:right|3.142:right|3.304:right,-,-,-,-,-,-,-,-,-,-,-,-,-,-,-,-,-,-,-,-,-,-,-,-,-,-,-,-,-,-,-,-,-,-
2025-05-01 14:55:10.800,DecisionOutcome,Unknown,0,Unknown,True,0,Practice_LowHighRatio,5,3,5,Work,0.331,Failure,False,0,0,0,4.267,-,-,-,-,-,-,-,-,-,17,0.711:right|0.874:right|1.036:right|1.179:right|1.323:right|1.470:right|1.620:right|1.782:right|1.944:right|2.103:right|2.272:right|2.435:right|2.603:right|2.774:right|2.951:right|3.142:right|3.304:right,0.251,False,0.1,-,-,0.00,0.00,0,0,-,-,-,-,-,-,-,-,-,-,-,-,-,-,-,-,-,-,-,-,-,-,-,-,-
2025-05-01 14:55:10.800,ButtonPresses,Unknown,0,Unknown,-,-,-,5,-,-,-,-,-,-,-,-,-,-,-,-,-,-,-,-,-,-,-,17,0.711:right|0.874:right|1.036:right|1.179:right|1.323:right|1.470:right|1.620:right|1.782:right|1.944:right|2.103:right|2.272:right|2.435:right|2.603:right|2.774:right|2.951:right|3.142:right|3.304:right,-,-,-,-,-,-,-,-,-,-,-,-,-,-,-,-,-,-,-,-,-,-,-,-,-,-,-,-,-,-,-,-,-,-
2025-05-01 14:55:10.800,MovementComplete,Unknown,0,Unknown,-,-,-,5,-,-,-,-,-,False,-,-,-,-,-,-,-,-,-,-,-,-,-,-,-,-,-,-,-,-,-,-,-,-,-,-,-,-,-,-,-,-,-,-,-,-,-,-,-,-,-,-,-,-,-,-,-,-,-
2025-05-01 14:55:10.801,RewardCollected,Unknown,0,Unknown,-,-,-,5,-,-,-,-,-,-,-,-,-,-,-,-,-,-,-,-,-,-,-,-,-,-,-,-,-,-,-,-,-,-,-,-,-,-,-,-,-,-,-,-,-,-,-,-,-,-,-,-,-,-,-,-,-,-,-
2025-05-01 14:55:10.960,PracticeTrialStart,Unknown,0,Unknown,-,2,LowHighRatio,6,-,-,-,-,-,-,-,-,-,-,-,-,-,-,-,-,-,-,-,-,-,-,-,-,-,-,-,-,-,-,-,-,-,-,-,-,-,-,-,-,-,-,-,-,-,-,-,-,-,-,-,-,-,-,-
2025-05-01 14:55:10.976,InfoMessage,Unknown,0,Unknown,-,-,-,-,-,-,-,-,-,-,-,-,-,-,-,-,-,-,-,-,-,-,-,-,-,-,-,-,-,-,-,-,-,-,-,-,-,-,-,-,-,-,-,-,-,-,-,-,-,-,-,-,-,-,-,-,-,-,-
2025-05-01 14:55:17.899,CHECK_QUESTION,Unknown,0,Unknown,-,-,-,1,-,-,-,-,-,-,-,-,-,-,-,-,-,-,-,-,-,-,-,-,-,-,-,-,-,-,-,-,-,-,-,-,-,-,-,-,-,1,1,FruitPreference,"Choose preferred fruit between Apple(Clone) and Watermelon(Clone)",T,T,True,0.355,-,-,-,-,-,-,-,-,-,-
2025-05-01 14:55:18.012,CHECK_QUESTION,Unknown,0,Unknown,-,-,-,2,-,-,-,-,-,-,-,-,-,-,-,-,-,-,-,-,-,-,-,-,-,-,-,-,-,-,-,-,-,-,-,-,-,-,-,-,-,1,2,FruitPreference,"Choose preferred fruit between Watermelon(Clone) and Grapes(Clone)",T,T,True,0.115,-,-,-,-,-,-,-,-,-,-
2025-05-01 14:55:18.200,CHECK_QUESTION,Unknown,0,Unknown,-,-,-,3,-,-,-,-,-,-,-,-,-,-,-,-,-,-,-,-,-,-,-,-,-,-,-,-,-,-,-,-,-,-,-,-,-,-,-,-,-,1,3,FruitPreference,"Choose preferred fruit between Apple(Clone) and Grapes(Clone)",T,T,True,0.188,-,-,-,-,-,-,-,-,-,-
2025-05-01 14:55:18.320,CHECK_QUESTION,Unknown,0,Unknown,-,-,-,4,-,-,-,-,-,-,-,-,-,-,-,-,-,-,-,-,-,-,-,-,-,-,-,-,-,-,-,-,-,-,-,-,-,-,-,-,-,1,4,FruitPreference,"Choose preferred fruit between Grapes(Clone) and Watermelon(Clone)",F,T,False,0.117,-,-,-,-,-,-,-,-,-,-
2025-05-01 14:55:18.457,CHECK_QUESTION,Unknown,0,Unknown,-,-,-,5,-,-,-,-,-,-,-,-,-,-,-,-,-,-,-,-,-,-,-,-,-,-,-,-,-,-,-,-,-,-,-,-,-,-,-,-,-,1,5,FruitPreference,"Choose preferred fruit between Grapes(Clone) and Apple(Clone)",F,T,False,0.139,-,-,-,-,-,-,-,-,-,-
2025-05-01 14:55:18.715,CHECK_QUESTION,Unknown,0,Unknown,-,-,-,6,-,-,-,-,-,-,-,-,-,-,-,-,-,-,-,-,-,-,-,-,-,-,-,-,-,-,-,-,-,-,-,-,-,-,-,-,-,1,6,FruitPreference,"Choose preferred fruit between Apple(Clone) and Watermelon(Clone)",F,T,False,0.258,-,-,-,-,-,-,-,-,-,-
2025-05-01 14:55:18.718,ExperimentEnd,Unknown,0,Unknown,-,-,-,-,-,-,-,-,-,-,-,-,-,-,-,-,-,-,-,-,-,-,-,-,-,-,-,-,-,-,-,-,-,-,-,-,-,-,-,-,-,-,-,-,-,-,-,-,-,-,-,-,-,-,-,-,-,-,-
2025-05-01 14:55:20.051,InfoMessage,Unknown,0,Unknown,-,-,-,-,-,-,-,-,-,-,-,-,-,-,-,-,-,-,-,-,-,-,-,-,-,-,-,-,-,-,-,-,-,-,-,-,-,-,-,-,-,-,-,-,-,-,-,-,-,-,-,-,-,-,-,-,-,-,-
