Timestamp,EventType,ParticipantID,ParticipantAge,ParticipantGender,IsPractice,BlockNumber,BlockType,TrialNumber,EffortLevel,RequiredPresses,DecisionType,ReactionTime,OutcomeType,RewardCollected,Points,TotalScore,PracticeScore,MovementDuration,StepStartTime,StepEndTime,StepDuration,StepSuccessful,StepPressesRequired,StartX,StartY,EndX,EndY,TotalPresses,PressData,TimePerPress,IsRushing,RushingThreshold,PenaltyType,PenaltyDuration,RemainingTime,ElapsedTime,CompletedTrials,TrialRate,CalibrationEasy,CalibrationMedium,CalibrationHard,CalibrationPhase1Rate,CalibrationPhase2Rate,CalibrationPhase3Rate,CalibrationMaxRate,CheckPhase,QuestionNumber,QuestionType,QuestionText,SelectedAnswer,CorrectAnswer,IsCorrect,ResponseTime,Check1Score,Check2Score,ComprehensionScore,TotalCheckScore,FailedAttempts,TirednessRating,ParticipantFeedback,ContinueButtonClicked,ButtonAction,RedirectURL,
2025-05-01 15:37:30.770,CalibrationPhase,xxx,20,Female,-,-,-,-,-,-,-,-,-,-,-,-,-,-,-,-,-,-,-,-,-,-,-,34,-,-,-,-,-,-,-,-,-,-,-,-,-,-,-,-,-,-,-,-,-,-,-,-,-,-,-,-,-,-,-,-,-,-,-
2025-05-01 15:37:43.016,CalibrationPhase,xxx,20,Female,-,-,-,-,-,-,-,-,-,-,-,-,-,-,-,-,-,-,-,-,-,-,-,33,-,-,-,-,-,-,-,-,-,-,-,-,-,-,-,-,-,-,-,-,-,-,-,-,-,-,-,-,-,-,-,-,-,-,-
2025-05-01 15:38:16.825,CalibrationPhase,xxx,20,Female,-,-,-,-,-,-,-,-,-,-,-,-,-,-,-,-,-,-,-,-,-,-,-,34,-,-,-,-,-,-,-,-,-,-,-,-,-,-,-,-,-,-,-,-,-,-,-,-,-,-,-,-,-,-,-,-,-,-,-
2025-05-01 15:38:16.830,CalibrationComplete,xxx,20,Female,-,-,-,-,-,-,-,-,-,-,-,-,-,-,-,-,-,-,-,-,-,-,-,-,-,-,-,-,-,-,-,-,-,-,1,3,4,6.80,6.60,6.80,6.80,-,-,-,-,-,-,-,-,-,-,-,-,-,-,-,-,-,-
2025-05-01 15:38:57.221,PracticeTrialStart,xxx,20,Female,-,0,Practice_EqualRatio,1,-,-,-,-,-,-,-,-,-,-,-,-,-,-,-,-,-,-,-,-,-,-,-,-,-,-,-,-,-,-,-,-,-,-,-,-,-,-,-,-,-,-,-,-,-,-,-,-,-,-,-,-,-,-,-
2025-05-01 15:39:13.941,PracticeTrialStart,xxx,20,Female,True,0,-,1,-,-,-,-,-,-,-,-,-,-,-,-,-,-,-,-,-,-,-,-,-,-,-,-,-,-,-,-,-,-,-,-,-,-,-,-,-,-,-,-,-,-,-,-,-,-,-,-,-,-,-,-,-,-,-
2025-05-01 15:39:14.983,MovementStart,xxx,20,Female,-,0,-,1,-,-,-,-,-,-,-,-,-,-,-,-,-,-,-,6.50,-3.50,-,-,-,-,-,-,-,-,-,-,-,-,-,-,-,-,-,-,-,-,-,-,-,-,-,-,-,-,-,-,-,-,-,-,-,-,-,-
2025-05-01 15:39:15.083,MovementStep,xxx,20,Female,-,0,Practice_EqualRatio,1,2,3,-,-,Pending,-,-,-,-,-,312.608,313.082,0.474,True,3,6.50,-3.50,5.50,-3.50,-,-,0.158,False,-,-,-,-,-,-,-,-,-,-,-,-,-,-,-,-,-,-,-,-,-,-,-,-,-,-,-,-,-,-,-,-
2025-05-01 15:39:15.426,MovementStart,xxx,20,Female,-,0,-,1,-,-,-,-,-,-,-,-,-,-,-,-,-,-,-,5.50,-3.50,-,-,-,-,-,-,-,-,-,-,-,-,-,-,-,-,-,-,-,-,-,-,-,-,-,-,-,-,-,-,-,-,-,-,-,-,-,-
2025-05-01 15:39:15.526,MovementStep,xxx,20,Female,-,0,Practice_EqualRatio,1,2,3,-,-,Pending,-,-,-,-,-,313.148,313.525,0.377,True,3,5.50,-3.50,4.50,-3.50,-,-,0.126,False,-,-,-,-,-,-,-,-,-,-,-,-,-,-,-,-,-,-,-,-,-,-,-,-,-,-,-,-,-,-,-,-
2025-05-01 15:39:15.892,MovementStart,xxx,20,Female,-,0,-,1,-,-,-,-,-,-,-,-,-,-,-,-,-,-,-,4.50,-3.50,-,-,-,-,-,-,-,-,-,-,-,-,-,-,-,-,-,-,-,-,-,-,-,-,-,-,-,-,-,-,-,-,-,-,-,-,-,-
2025-05-01 15:39:15.992,MovementStep,xxx,20,Female,-,0,Practice_EqualRatio,1,2,3,-,-,Pending,-,-,-,-,-,313.574,313.991,0.417,True,3,4.50,-3.50,3.50,-3.50,-,-,0.139,False,-,-,-,-,-,-,-,-,-,-,-,-,-,-,-,-,-,-,-,-,-,-,-,-,-,-,-,-,-,-,-,-
2025-05-01 15:39:16.349,MovementStart,xxx,20,Female,-,0,-,1,-,-,-,-,-,-,-,-,-,-,-,-,-,-,-,3.50,-3.50,-,-,-,-,-,-,-,-,-,-,-,-,-,-,-,-,-,-,-,-,-,-,-,-,-,-,-,-,-,-,-,-,-,-,-,-,-,-
2025-05-01 15:39:16.449,MovementStep,xxx,20,Female,-,0,Practice_EqualRatio,1,2,3,-,-,Pending,-,-,-,-,-,314.028,314.448,0.420,True,3,3.50,-3.50,2.50,-3.50,-,-,0.140,False,-,-,-,-,-,-,-,-,-,-,-,-,-,-,-,-,-,-,-,-,-,-,-,-,-,-,-,-,-,-,-,-
2025-05-01 15:39:16.829,MovementStart,xxx,20,Female,-,0,-,1,-,-,-,-,-,-,-,-,-,-,-,-,-,-,-,2.50,-3.50,-,-,-,-,-,-,-,-,-,-,-,-,-,-,-,-,-,-,-,-,-,-,-,-,-,-,-,-,-,-,-,-,-,-,-,-,-,-
2025-05-01 15:39:16.844,ScoreUpdate,xxx,20,Female,True,0,-,1,-,-,-,-,-,-,10,0,10,-,-,-,-,-,-,-,-,-,-,-,-,-,-,-,-,-,-,-,-,-,-,-,-,-,-,-,-,-,-,-,-,-,-,-,-,-,-,-,-,-,-,-,-,-,-
2025-05-01 15:39:16.844,CollisionTime,xxx,20,Female,True,0,-,1,-,-,-,-,-,-,-,-,-,2.232,-,-,-,-,-,-,-,-,-,-,-,-,-,-,-,-,-,-,-,-,-,-,-,-,-,-,-,-,-,-,-,-,-,-,-,-,-,-,-,-,-,-,-,-,-
2025-05-01 15:39:16.845,MovementDuration,xxx,20,Female,-,-,-,1,-,-,-,-,Success,-,-,-,-,2.232,-,-,-,-,-,-,-,-,-,-,-,-,-,-,-,-,-,-,-,-,-,-,-,-,-,-,-,-,-,-,-,-,-,-,-,-,-,-,-,-,-,-,-,-,-
2025-05-01 15:39:16.848,DecisionOutcome,xxx,20,Female,True,0,Practice_EqualRatio,1,2,3,Work,15.286,Success,True,10,0,0,2.232,-,-,-,-,-,-,-,-,-,15,0.555:left|0.773:left|0.929:left|1.095:left|1.242:left|1.372:left|1.521:left|1.680:left|1.838:left|1.975:left|2.138:left|2.295:left|2.449:left|2.638:left|2.776:left,0.149,False,0.1,-,-,0.00,0.00,0,0,-,-,-,-,-,-,-,-,-,-,-,-,-,-,-,-,-,-,-,-,-,-,-,-,-
2025-05-01 15:39:16.849,MovementComplete,xxx,20,Female,-,-,-,1,-,-,-,-,-,True,-,-,-,-,-,-,-,-,-,-,-,-,-,-,-,-,-,-,-,-,-,-,-,-,-,-,-,-,-,-,-,-,-,-,-,-,-,-,-,-,-,-,-,-,-,-,-,-,-
2025-05-01 15:39:16.849,RewardCollected,xxx,20,Female,-,-,-,1,-,-,-,-,-,-,-,-,-,-,-,-,-,-,-,-,-,-,-,-,-,-,-,-,-,-,-,-,-,-,-,-,-,-,-,-,-,-,-,-,-,-,-,-,-,-,-,-,-,-,-,-,-,-,-
2025-05-01 15:39:16.850,OutcomeType,xxx,20,Female,-,-,-,1,-,-,-,-,Success,-,-,-,-,-,-,-,-,-,-,-,-,-,-,-,-,-,-,-,-,-,-,-,-,-,-,-,-,-,-,-,-,-,-,-,-,-,-,-,-,-,-,-,-,-,-,-,-,-,-
2025-05-01 15:39:16.850,RewardCollected,xxx,20,Female,-,-,-,1,-,-,-,-,-,-,-,-,-,-,-,-,-,-,-,-,-,-,-,-,-,-,-,-,-,-,-,-,-,-,-,-,-,-,-,-,-,-,-,-,-,-,-,-,-,-,-,-,-,-,-,-,-,-,-
2025-05-01 15:39:16.850,ButtonPresses,xxx,20,Female,-,-,-,1,-,-,-,-,-,-,-,-,-,-,-,-,-,-,-,-,-,-,-,15,0.555:left|0.773:left|0.929:left|1.095:left|1.242:left|1.372:left|1.521:left|1.680:left|1.838:left|1.975:left|2.138:left|2.295:left|2.449:left|2.638:left|2.776:left,-,-,-,-,-,-,-,-,-,-,-,-,-,-,-,-,-,-,-,-,-,-,-,-,-,-,-,-,-,-,-,-,-,-
2025-05-01 15:39:16.930,MovementStep,xxx,20,Female,-,0,Practice_EqualRatio,1,2,3,-,-,Success,-,-,-,-,-,314.502,314.929,0.427,True,3,2.50,-3.50,1.50,-3.50,-,-,0.142,False,-,-,-,-,-,-,-,-,-,-,-,-,-,-,-,-,-,-,-,-,-,-,-,-,-,-,-,-,-,-,-,-
2025-05-01 15:39:19.180,PracticeTrialStart,xxx,20,Female,-,0,Practice_EqualRatio,2,-,-,-,-,-,-,-,-,-,-,-,-,-,-,-,-,-,-,-,-,-,-,-,-,-,-,-,-,-,-,-,-,-,-,-,-,-,-,-,-,-,-,-,-,-,-,-,-,-,-,-,-,-,-,-
2025-05-01 15:39:19.197,InfoMessage,xxx,20,Female,-,-,-,-,-,-,-,-,-,-,-,-,-,-,-,-,-,-,-,-,-,-,-,-,-,-,-,-,-,-,-,-,-,-,-,-,-,-,-,-,-,-,-,-,-,-,-,-,-,-,-,-,-,-,-,-,-,-,-
2025-05-01 15:39:21.721,PracticeTrialStart,xxx,20,Female,True,0,-,2,-,-,-,-,-,-,-,-,-,-,-,-,-,-,-,-,-,-,-,-,-,-,-,-,-,-,-,-,-,-,-,-,-,-,-,-,-,-,-,-,-,-,-,-,-,-,-,-,-,-,-,-,-,-,-
2025-05-01 15:39:23.556,MovementStart,xxx,20,Female,-,0,-,2,-,-,-,-,-,-,-,-,-,-,-,-,-,-,-,-5.50,2.50,-,-,-,-,-,-,-,-,-,-,-,-,-,-,-,-,-,-,-,-,-,-,-,-,-,-,-,-,-,-,-,-,-,-,-,-,-,-
2025-05-01 15:39:23.656,MovementStep,xxx,20,Female,-,0,Practice_EqualRatio,2,1,1,-,-,Pending,-,-,-,-,-,321.118,321.218,0.100,True,1,-5.50,2.50,-4.50,2.50,-,-,0.100,False,-,-,-,-,-,-,-,-,-,-,-,-,-,-,-,-,-,-,-,-,-,-,-,-,-,-,-,-,-,-,-,-
2025-05-01 15:39:23.728,MovementStart,xxx,20,Female,-,0,-,2,-,-,-,-,-,-,-,-,-,-,-,-,-,-,-,-4.50,2.50,-,-,-,-,-,-,-,-,-,-,-,-,-,-,-,-,-,-,-,-,-,-,-,-,-,-,-,-,-,-,-,-,-,-,-,-,-,-
2025-05-01 15:39:23.829,MovementStep,xxx,20,Female,-,0,Practice_EqualRatio,2,1,1,-,-,Pending,-,-,-,-,-,321.289,321.390,0.101,True,1,-4.50,2.50,-3.50,2.50,-,-,0.101,False,-,-,-,-,-,-,-,-,-,-,-,-,-,-,-,-,-,-,-,-,-,-,-,-,-,-,-,-,-,-,-,-
2025-05-01 15:39:23.869,MovementStart,xxx,20,Female,-,0,-,2,-,-,-,-,-,-,-,-,-,-,-,-,-,-,-,-3.50,2.50,-,-,-,-,-,-,-,-,-,-,-,-,-,-,-,-,-,-,-,-,-,-,-,-,-,-,-,-,-,-,-,-,-,-,-,-,-,-
2025-05-01 15:39:23.970,MovementStep,xxx,20,Female,-,0,Practice_EqualRatio,2,1,1,-,-,Pending,-,-,-,-,-,321.431,321.531,0.100,True,1,-3.50,2.50,-2.50,2.50,-,-,0.100,False,-,-,-,-,-,-,-,-,-,-,-,-,-,-,-,-,-,-,-,-,-,-,-,-,-,-,-,-,-,-,-,-
2025-05-01 15:39:24.015,MovementStart,xxx,20,Female,-,0,-,2,-,-,-,-,-,-,-,-,-,-,-,-,-,-,-,-2.50,2.50,-,-,-,-,-,-,-,-,-,-,-,-,-,-,-,-,-,-,-,-,-,-,-,-,-,-,-,-,-,-,-,-,-,-,-,-,-,-
2025-05-01 15:39:24.115,MovementStep,xxx,20,Female,-,0,Practice_EqualRatio,2,1,1,-,-,Pending,-,-,-,-,-,321.577,321.677,0.100,True,1,-2.50,2.50,-1.50,2.50,-,-,0.100,False,-,-,-,-,-,-,-,-,-,-,-,-,-,-,-,-,-,-,-,-,-,-,-,-,-,-,-,-,-,-,-,-
2025-05-01 15:39:24.158,MovementStart,xxx,20,Female,-,0,-,2,-,-,-,-,-,-,-,-,-,-,-,-,-,-,-,-1.50,2.50,-,-,-,-,-,-,-,-,-,-,-,-,-,-,-,-,-,-,-,-,-,-,-,-,-,-,-,-,-,-,-,-,-,-,-,-,-,-
2025-05-01 15:39:24.179,ScoreUpdate,xxx,20,Female,True,0,-,2,-,-,-,-,-,-,10,0,20,-,-,-,-,-,-,-,-,-,-,-,-,-,-,-,-,-,-,-,-,-,-,-,-,-,-,-,-,-,-,-,-,-,-,-,-,-,-,-,-,-,-,-,-,-,-
2025-05-01 15:39:24.180,CollisionTime,xxx,20,Female,True,0,-,2,-,-,-,-,-,-,-,-,-,0.622,-,-,-,-,-,-,-,-,-,-,-,-,-,-,-,-,-,-,-,-,-,-,-,-,-,-,-,-,-,-,-,-,-,-,-,-,-,-,-,-,-,-,-,-,-
2025-05-01 15:39:24.181,MovementDuration,xxx,20,Female,-,-,-,2,-,-,-,-,Success,-,-,-,-,0.622,-,-,-,-,-,-,-,-,-,-,-,-,-,-,-,-,-,-,-,-,-,-,-,-,-,-,-,-,-,-,-,-,-,-,-,-,-,-,-,-,-,-,-,-,-
2025-05-01 15:39:24.183,DecisionOutcome,xxx,20,Female,True,0,Practice_EqualRatio,2,1,1,Work,1.118,Success,True,10,0,0,0.622,-,-,-,-,-,-,-,-,-,5,1.732:right|1.903:right|2.045:right|2.191:right|2.334:right,0.124,False,0.1,-,-,0.00,0.00,0,0,-,-,-,-,-,-,-,-,-,-,-,-,-,-,-,-,-,-,-,-,-,-,-,-,-
2025-05-01 15:39:24.183,MovementComplete,xxx,20,Female,-,-,-,2,-,-,-,-,-,True,-,-,-,-,-,-,-,-,-,-,-,-,-,-,-,-,-,-,-,-,-,-,-,-,-,-,-,-,-,-,-,-,-,-,-,-,-,-,-,-,-,-,-,-,-,-,-,-,-
2025-05-01 15:39:24.183,RewardCollected,xxx,20,Female,-,-,-,2,-,-,-,-,-,-,-,-,-,-,-,-,-,-,-,-,-,-,-,-,-,-,-,-,-,-,-,-,-,-,-,-,-,-,-,-,-,-,-,-,-,-,-,-,-,-,-,-,-,-,-,-,-,-,-
2025-05-01 15:39:24.184,OutcomeType,xxx,20,Female,-,-,-,2,-,-,-,-,Success,-,-,-,-,-,-,-,-,-,-,-,-,-,-,-,-,-,-,-,-,-,-,-,-,-,-,-,-,-,-,-,-,-,-,-,-,-,-,-,-,-,-,-,-,-,-,-,-,-,-
2025-05-01 15:39:24.184,RewardCollected,xxx,20,Female,-,-,-,2,-,-,-,-,-,-,-,-,-,-,-,-,-,-,-,-,-,-,-,-,-,-,-,-,-,-,-,-,-,-,-,-,-,-,-,-,-,-,-,-,-,-,-,-,-,-,-,-,-,-,-,-,-,-,-
2025-05-01 15:39:24.184,ButtonPresses,xxx,20,Female,-,-,-,2,-,-,-,-,-,-,-,-,-,-,-,-,-,-,-,-,-,-,-,5,1.732:right|1.903:right|2.045:right|2.191:right|2.334:right,-,-,-,-,-,-,-,-,-,-,-,-,-,-,-,-,-,-,-,-,-,-,-,-,-,-,-,-,-,-,-,-,-,-
2025-05-01 15:39:24.258,MovementStep,xxx,20,Female,-,0,Practice_EqualRatio,2,1,1,-,-,Success,-,-,-,-,-,321.720,321.820,0.100,True,1,-1.50,2.50,-0.50,2.50,-,-,0.100,False,-,-,-,-,-,-,-,-,-,-,-,-,-,-,-,-,-,-,-,-,-,-,-,-,-,-,-,-,-,-,-,-
2025-05-01 15:39:26.947,PracticeTrialStart,xxx,20,Female,-,0,Practice_EqualRatio,3,-,-,-,-,-,-,-,-,-,-,-,-,-,-,-,-,-,-,-,-,-,-,-,-,-,-,-,-,-,-,-,-,-,-,-,-,-,-,-,-,-,-,-,-,-,-,-,-,-,-,-,-,-,-,-
2025-05-01 15:39:26.963,InfoMessage,xxx,20,Female,-,-,-,-,-,-,-,-,-,-,-,-,-,-,-,-,-,-,-,-,-,-,-,-,-,-,-,-,-,-,-,-,-,-,-,-,-,-,-,-,-,-,-,-,-,-,-,-,-,-,-,-,-,-,-,-,-,-,-
2025-05-01 15:39:35.425,CHECK_QUESTION,xxx,20,Female,-,-,-,1,-,-,-,-,-,-,-,-,-,-,-,-,-,-,-,-,-,-,-,-,-,-,-,-,-,-,-,-,-,-,-,-,-,-,-,-,-,1,1,FruitPreference,"Choose preferred fruit between Watermelon(Clone) and Apple(Clone)",F,T,False,1.989,-,-,-,-,-,-,-,-,-,-
2025-05-01 15:39:35.592,CHECK_QUESTION,xxx,20,Female,-,-,-,2,-,-,-,-,-,-,-,-,-,-,-,-,-,-,-,-,-,-,-,-,-,-,-,-,-,-,-,-,-,-,-,-,-,-,-,-,-,1,2,FruitPreference,"Choose preferred fruit between Apple(Clone) and Watermelon(Clone)",F,T,False,0.172,-,-,-,-,-,-,-,-,-,-
2025-05-01 15:39:35.754,CHECK_QUESTION,xxx,20,Female,-,-,-,3,-,-,-,-,-,-,-,-,-,-,-,-,-,-,-,-,-,-,-,-,-,-,-,-,-,-,-,-,-,-,-,-,-,-,-,-,-,1,3,FruitPreference,"Choose preferred fruit between Grapes(Clone) and Apple(Clone)",F,T,False,0.162,-,-,-,-,-,-,-,-,-,-
2025-05-01 15:39:35.891,CHECK_QUESTION,xxx,20,Female,-,-,-,4,-,-,-,-,-,-,-,-,-,-,-,-,-,-,-,-,-,-,-,-,-,-,-,-,-,-,-,-,-,-,-,-,-,-,-,-,-,1,4,FruitPreference,"Choose preferred fruit between Grapes(Clone) and Watermelon(Clone)",F,T,False,0.137,-,-,-,-,-,-,-,-,-,-
2025-05-01 15:39:36.020,CHECK_QUESTION,xxx,20,Female,-,-,-,5,-,-,-,-,-,-,-,-,-,-,-,-,-,-,-,-,-,-,-,-,-,-,-,-,-,-,-,-,-,-,-,-,-,-,-,-,-,1,5,FruitPreference,"Choose preferred fruit between Grapes(Clone) and Watermelon(Clone)",T,T,True,0.127,-,-,-,-,-,-,-,-,-,-
2025-05-01 15:39:36.102,CHECK_QUESTION,xxx,20,Female,-,-,-,6,-,-,-,-,-,-,-,-,-,-,-,-,-,-,-,-,-,-,-,-,-,-,-,-,-,-,-,-,-,-,-,-,-,-,-,-,-,1,6,FruitPreference,"Choose preferred fruit between Grapes(Clone) and Apple(Clone)",T,T,True,0.084,-,-,-,-,-,-,-,-,-,-
2025-05-01 15:39:44.502,PracticeTrialStart,xxx,20,Female,-,0,Practice_LowHighRatio,1,-,-,-,-,-,-,-,-,-,-,-,-,-,-,-,-,-,-,-,-,-,-,-,-,-,-,-,-,-,-,-,-,-,-,-,-,-,-,-,-,-,-,-,-,-,-,-,-,-,-,-,-,-,-,-
2025-05-01 15:39:44.518,InfoMessage,xxx,20,Female,-,-,-,-,-,-,-,-,-,-,-,-,-,-,-,-,-,-,-,-,-,-,-,-,-,-,-,-,-,-,-,-,-,-,-,-,-,-,-,-,-,-,-,-,-,-,-,-,-,-,-,-,-,-,-,-,-,-,-
2025-05-01 15:39:46.842,PracticeTrialStart,xxx,20,Female,True,0,-,1,-,-,-,-,-,-,-,-,-,-,-,-,-,-,-,-,-,-,-,-,-,-,-,-,-,-,-,-,-,-,-,-,-,-,-,-,-,-,-,-,-,-,-,-,-,-,-,-,-,-,-,-,-,-,-
2025-05-01 15:39:48.363,MovementStart,xxx,20,Female,-,0,-,1,-,-,-,-,-,-,-,-,-,-,-,-,-,-,-,4.50,-3.50,-,-,-,-,-,-,-,-,-,-,-,-,-,-,-,-,-,-,-,-,-,-,-,-,-,-,-,-,-,-,-,-,-,-,-,-,-,-
2025-05-01 15:39:48.462,MovementStep,xxx,20,Female,-,0,Practice_LowHighRatio,1,3,4,-,-,Pending,-,-,-,-,-,344.405,345.034,0.629,True,4,4.50,-3.50,3.50,-3.50,-,-,0.157,False,-,-,-,-,-,-,-,-,-,-,-,-,-,-,-,-,-,-,-,-,-,-,-,-,-,-,-,-,-,-,-,-
2025-05-01 15:39:49.041,MovementStart,xxx,20,Female,-,0,-,1,-,-,-,-,-,-,-,-,-,-,-,-,-,-,-,3.50,-3.50,-,-,-,-,-,-,-,-,-,-,-,-,-,-,-,-,-,-,-,-,-,-,-,-,-,-,-,-,-,-,-,-,-,-,-,-,-,-
2025-05-01 15:39:49.141,MovementStep,xxx,20,Female,-,0,Practice_LowHighRatio,1,3,4,-,-,Pending,-,-,-,-,-,345.114,345.713,0.599,True,4,3.50,-3.50,2.50,-3.50,-,-,0.150,False,-,-,-,-,-,-,-,-,-,-,-,-,-,-,-,-,-,-,-,-,-,-,-,-,-,-,-,-,-,-,-,-
2025-05-01 15:39:49.710,MovementStart,xxx,20,Female,-,0,-,1,-,-,-,-,-,-,-,-,-,-,-,-,-,-,-,2.50,-3.50,-,-,-,-,-,-,-,-,-,-,-,-,-,-,-,-,-,-,-,-,-,-,-,-,-,-,-,-,-,-,-,-,-,-,-,-,-,-
2025-05-01 15:39:49.811,MovementStep,xxx,20,Female,-,0,Practice_LowHighRatio,1,3,4,-,-,Pending,-,-,-,-,-,345.790,346.383,0.593,True,4,2.50,-3.50,1.50,-3.50,-,-,0.148,False,-,-,-,-,-,-,-,-,-,-,-,-,-,-,-,-,-,-,-,-,-,-,-,-,-,-,-,-,-,-,-,-
2025-05-01 15:39:51.930,MovementDuration,xxx,20,Female,-,-,-,1,-,-,-,-,Failure,-,-,-,-,4.096,-,-,-,-,-,-,-,-,-,-,-,-,-,-,-,-,-,-,-,-,-,-,-,-,-,-,-,-,-,-,-,-,-,-,-,-,-,-,-,-,-,-,-,-,-
2025-05-01 15:39:51.931,OutcomeType,xxx,20,Female,-,-,-,1,-,-,-,-,Failure,-,-,-,-,-,-,-,-,-,-,-,-,-,-,-,-,-,-,-,-,-,-,-,-,-,-,-,-,-,-,-,-,-,-,-,-,-,-,-,-,-,-,-,-,-,-,-,-,-,-
2025-05-01 15:39:51.931,RewardCollected,xxx,20,Female,-,-,-,1,-,-,-,-,-,-,-,-,-,-,-,-,-,-,-,-,-,-,-,-,-,-,-,-,-,-,-,-,-,-,-,-,-,-,-,-,-,-,-,-,-,-,-,-,-,-,-,-,-,-,-,-,-,-,-
2025-05-01 15:39:51.932,ButtonPresses,xxx,20,Female,-,-,-,1,-,-,-,-,-,-,-,-,-,-,-,-,-,-,-,-,-,-,-,15,0.887:left|1.070:left|1.237:left|1.417:left|1.596:left|1.750:left|1.919:left|2.095:left|2.272:left|2.446:left|2.596:left|2.764:left|2.937:left|3.100:left|3.269:left,-,-,-,-,-,-,-,-,-,-,-,-,-,-,-,-,-,-,-,-,-,-,-,-,-,-,-,-,-,-,-,-,-,-
2025-05-01 15:39:51.934,DecisionOutcome,xxx,20,Female,True,0,Practice_LowHighRatio,1,3,4,Work,0.930,Failure,False,0,0,0,4.096,-,-,-,-,-,-,-,-,-,15,0.887:left|1.070:left|1.237:left|1.417:left|1.596:left|1.750:left|1.919:left|2.095:left|2.272:left|2.446:left|2.596:left|2.764:left|2.937:left|3.100:left|3.269:left,0.273,False,0.1,-,-,0.00,0.00,0,0,-,-,-,-,-,-,-,-,-,-,-,-,-,-,-,-,-,-,-,-,-,-,-,-,-
2025-05-01 15:39:51.935,ButtonPresses,xxx,20,Female,-,-,-,1,-,-,-,-,-,-,-,-,-,-,-,-,-,-,-,-,-,-,-,15,0.887:left|1.070:left|1.237:left|1.417:left|1.596:left|1.750:left|1.919:left|2.095:left|2.272:left|2.446:left|2.596:left|2.764:left|2.937:left|3.100:left|3.269:left,-,-,-,-,-,-,-,-,-,-,-,-,-,-,-,-,-,-,-,-,-,-,-,-,-,-,-,-,-,-,-,-,-,-
2025-05-01 15:39:51.935,MovementComplete,xxx,20,Female,-,-,-,1,-,-,-,-,-,False,-,-,-,-,-,-,-,-,-,-,-,-,-,-,-,-,-,-,-,-,-,-,-,-,-,-,-,-,-,-,-,-,-,-,-,-,-,-,-,-,-,-,-,-,-,-,-,-,-
2025-05-01 15:39:51.936,RewardCollected,xxx,20,Female,-,-,-,1,-,-,-,-,-,-,-,-,-,-,-,-,-,-,-,-,-,-,-,-,-,-,-,-,-,-,-,-,-,-,-,-,-,-,-,-,-,-,-,-,-,-,-,-,-,-,-,-,-,-,-,-,-,-,-
2025-05-01 15:39:52.124,PracticeTrialStart,xxx,20,Female,-,0,Practice_LowHighRatio,2,-,-,-,-,-,-,-,-,-,-,-,-,-,-,-,-,-,-,-,-,-,-,-,-,-,-,-,-,-,-,-,-,-,-,-,-,-,-,-,-,-,-,-,-,-,-,-,-,-,-,-,-,-,-,-
2025-05-01 15:39:52.144,InfoMessage,xxx,20,Female,-,-,-,-,-,-,-,-,-,-,-,-,-,-,-,-,-,-,-,-,-,-,-,-,-,-,-,-,-,-,-,-,-,-,-,-,-,-,-,-,-,-,-,-,-,-,-,-,-,-,-,-,-,-,-,-,-,-,-
2025-05-01 15:39:54.067,PracticeTrialStart,xxx,20,Female,True,0,-,2,-,-,-,-,-,-,-,-,-,-,-,-,-,-,-,-,-,-,-,-,-,-,-,-,-,-,-,-,-,-,-,-,-,-,-,-,-,-,-,-,-,-,-,-,-,-,-,-,-,-,-,-,-,-,-
2025-05-01 15:39:55.402,MovementStart,xxx,20,Female,-,0,-,2,-,-,-,-,-,-,-,-,-,-,-,-,-,-,-,-3.50,-0.50,-,-,-,-,-,-,-,-,-,-,-,-,-,-,-,-,-,-,-,-,-,-,-,-,-,-,-,-,-,-,-,-,-,-,-,-,-,-
2025-05-01 15:39:55.502,MovementStep,xxx,20,Female,-,0,Practice_LowHighRatio,2,3,4,-,-,Pending,-,-,-,-,-,350.971,351.553,0.581,True,4,-3.50,-0.50,-2.50,-0.50,-,-,0.145,False,-,-,-,-,-,-,-,-,-,-,-,-,-,-,-,-,-,-,-,-,-,-,-,-,-,-,-,-,-,-,-,-
2025-05-01 15:39:55.963,MovementStart,xxx,20,Female,-,0,-,2,-,-,-,-,-,-,-,-,-,-,-,-,-,-,-,-2.50,-0.50,-,-,-,-,-,-,-,-,-,-,-,-,-,-,-,-,-,-,-,-,-,-,-,-,-,-,-,-,-,-,-,-,-,-,-,-,-,-
2025-05-01 15:39:56.062,MovementStep,xxx,20,Female,-,0,Practice_LowHighRatio,2,3,4,-,-,Pending,-,-,-,-,-,351.595,352.113,0.519,True,4,-2.50,-0.50,-1.50,-0.50,-,-,0.130,False,-,-,-,-,-,-,-,-,-,-,-,-,-,-,-,-,-,-,-,-,-,-,-,-,-,-,-,-,-,-,-,-
2025-05-01 15:39:56.778,MovementStart,xxx,20,Female,-,0,-,2,-,-,-,-,-,-,-,-,-,-,-,-,-,-,-,-1.50,-0.50,-,-,-,-,-,-,-,-,-,-,-,-,-,-,-,-,-,-,-,-,-,-,-,-,-,-,-,-,-,-,-,-,-,-,-,-,-,-
2025-05-01 15:39:56.879,MovementStep,xxx,20,Female,-,0,Practice_LowHighRatio,2,3,4,-,-,Pending,-,-,-,-,-,352.279,352.930,0.650,True,4,-1.50,-0.50,-0.50,-0.50,-,-,0.163,False,-,-,-,-,-,-,-,-,-,-,-,-,-,-,-,-,-,-,-,-,-,-,-,-,-,-,-,-,-,-,-,-
2025-05-01 15:39:57.353,MovementStart,xxx,20,Female,-,0,-,2,-,-,-,-,-,-,-,-,-,-,-,-,-,-,-,-0.50,-0.50,-,-,-,-,-,-,-,-,-,-,-,-,-,-,-,-,-,-,-,-,-,-,-,-,-,-,-,-,-,-,-,-,-,-,-,-,-,-
2025-05-01 15:39:57.453,MovementStep,xxx,20,Female,-,0,Practice_LowHighRatio,2,3,4,-,-,Pending,-,-,-,-,-,352.970,353.504,0.535,True,4,-0.50,-0.50,0.50,-0.50,-,-,0.134,False,-,-,-,-,-,-,-,-,-,-,-,-,-,-,-,-,-,-,-,-,-,-,-,-,-,-,-,-,-,-,-,-
2025-05-01 15:39:58.256,MovementStart,xxx,20,Female,-,0,-,2,-,-,-,-,-,-,-,-,-,-,-,-,-,-,-,0.50,-0.50,-,-,-,-,-,-,-,-,-,-,-,-,-,-,-,-,-,-,-,-,-,-,-,-,-,-,-,-,-,-,-,-,-,-,-,-,-,-
2025-05-01 15:39:58.271,ScoreUpdate,xxx,20,Female,True,0,-,2,-,-,-,-,-,-,10,0,30,-,-,-,-,-,-,-,-,-,-,-,-,-,-,-,-,-,-,-,-,-,-,-,-,-,-,-,-,-,-,-,-,-,-,-,-,-,-,-,-,-,-,-,-,-,-
2025-05-01 15:39:58.271,CollisionTime,xxx,20,Female,True,0,-,2,-,-,-,-,-,-,-,-,-,3.663,-,-,-,-,-,-,-,-,-,-,-,-,-,-,-,-,-,-,-,-,-,-,-,-,-,-,-,-,-,-,-,-,-,-,-,-,-,-,-,-,-,-,-,-,-
2025-05-01 15:39:58.272,MovementDuration,xxx,20,Female,-,-,-,2,-,-,-,-,Success,-,-,-,-,3.663,-,-,-,-,-,-,-,-,-,-,-,-,-,-,-,-,-,-,-,-,-,-,-,-,-,-,-,-,-,-,-,-,-,-,-,-,-,-,-,-,-,-,-,-,-
2025-05-01 15:39:58.274,DecisionOutcome,xxx,20,Female,True,0,Practice_LowHighRatio,2,3,4,Work,0.477,Success,True,10,0,0,3.663,-,-,-,-,-,-,-,-,-,21,0.435:left|0.750:right|0.962:right|1.092:right|1.231:right|1.373:right|1.515:right|1.645:right|1.792:right|2.057:right|2.331:right|2.469:right|2.607:right|2.748:right|2.898:right|3.063:right|3.182:right|3.323:right|3.463:right|3.613:right|4.085:right,0.174,False,0.1,-,-,0.00,0.00,0,0,-,-,-,-,-,-,-,-,-,-,-,-,-,-,-,-,-,-,-,-,-,-,-,-,-
2025-05-01 15:39:58.274,MovementComplete,xxx,20,Female,-,-,-,2,-,-,-,-,-,True,-,-,-,-,-,-,-,-,-,-,-,-,-,-,-,-,-,-,-,-,-,-,-,-,-,-,-,-,-,-,-,-,-,-,-,-,-,-,-,-,-,-,-,-,-,-,-,-,-
2025-05-01 15:39:58.275,RewardCollected,xxx,20,Female,-,-,-,2,-,-,-,-,-,-,-,-,-,-,-,-,-,-,-,-,-,-,-,-,-,-,-,-,-,-,-,-,-,-,-,-,-,-,-,-,-,-,-,-,-,-,-,-,-,-,-,-,-,-,-,-,-,-,-
2025-05-01 15:39:58.275,OutcomeType,xxx,20,Female,-,-,-,2,-,-,-,-,Success,-,-,-,-,-,-,-,-,-,-,-,-,-,-,-,-,-,-,-,-,-,-,-,-,-,-,-,-,-,-,-,-,-,-,-,-,-,-,-,-,-,-,-,-,-,-,-,-,-,-
2025-05-01 15:39:58.275,RewardCollected,xxx,20,Female,-,-,-,2,-,-,-,-,-,-,-,-,-,-,-,-,-,-,-,-,-,-,-,-,-,-,-,-,-,-,-,-,-,-,-,-,-,-,-,-,-,-,-,-,-,-,-,-,-,-,-,-,-,-,-,-,-,-,-
2025-05-01 15:39:58.276,ButtonPresses,xxx,20,Female,-,-,-,2,-,-,-,-,-,-,-,-,-,-,-,-,-,-,-,-,-,-,-,21,0.435:left|0.750:right|0.962:right|1.092:right|1.231:right|1.373:right|1.515:right|1.645:right|1.792:right|2.057:right|2.331:right|2.469:right|2.607:right|2.748:right|2.898:right|3.063:right|3.182:right|3.323:right|3.463:right|3.613:right|4.085:right,-,-,-,-,-,-,-,-,-,-,-,-,-,-,-,-,-,-,-,-,-,-,-,-,-,-,-,-,-,-,-,-,-,-
2025-05-01 15:39:58.356,MovementStep,xxx,20,Female,-,0,Practice_LowHighRatio,2,3,4,-,-,Success,-,-,-,-,-,353.545,354.407,0.862,True,4,0.50,-0.50,1.50,-0.50,-,-,0.216,False,-,-,-,-,-,-,-,-,-,-,-,-,-,-,-,-,-,-,-,-,-,-,-,-,-,-,-,-,-,-,-,-
2025-05-01 15:39:59.298,PracticeTrialStart,xxx,20,Female,-,0,Practice_LowHighRatio,3,-,-,-,-,-,-,-,-,-,-,-,-,-,-,-,-,-,-,-,-,-,-,-,-,-,-,-,-,-,-,-,-,-,-,-,-,-,-,-,-,-,-,-,-,-,-,-,-,-,-,-,-,-,-,-
2025-05-01 15:39:59.314,InfoMessage,xxx,20,Female,-,-,-,-,-,-,-,-,-,-,-,-,-,-,-,-,-,-,-,-,-,-,-,-,-,-,-,-,-,-,-,-,-,-,-,-,-,-,-,-,-,-,-,-,-,-,-,-,-,-,-,-,-,-,-,-,-,-,-
2025-05-01 15:40:01.611,PracticeTrialStart,xxx,20,Female,True,0,-,3,-,-,-,-,-,-,-,-,-,-,-,-,-,-,-,-,-,-,-,-,-,-,-,-,-,-,-,-,-,-,-,-,-,-,-,-,-,-,-,-,-,-,-,-,-,-,-,-,-,-,-,-,-,-,-
2025-05-01 15:40:05.940,MovementStart,xxx,20,Female,-,0,-,3,-,-,-,-,-,-,-,-,-,-,-,-,-,-,-,4.50,0.50,-,-,-,-,-,-,-,-,-,-,-,-,-,-,-,-,-,-,-,-,-,-,-,-,-,-,-,-,-,-,-,-,-,-,-,-,-,-
2025-05-01 15:40:06.040,MovementStep,xxx,20,Female,-,0,Practice_LowHighRatio,3,3,4,-,-,Pending,-,-,-,-,-,361.077,361.656,0.579,True,4,4.50,0.50,3.50,0.50,-,-,0.145,False,-,-,-,-,-,-,-,-,-,-,-,-,-,-,-,-,-,-,-,-,-,-,-,-,-,-,-,-,-,-,-,-
2025-05-01 15:40:06.578,MovementStart,xxx,20,Female,-,0,-,3,-,-,-,-,-,-,-,-,-,-,-,-,-,-,-,3.50,0.50,-,-,-,-,-,-,-,-,-,-,-,-,-,-,-,-,-,-,-,-,-,-,-,-,-,-,-,-,-,-,-,-,-,-,-,-,-,-
2025-05-01 15:40:06.679,MovementStep,xxx,20,Female,-,0,Practice_LowHighRatio,3,3,4,-,-,Pending,-,-,-,-,-,361.719,362.295,0.576,True,4,3.50,0.50,2.50,0.50,-,-,0.144,False,-,-,-,-,-,-,-,-,-,-,-,-,-,-,-,-,-,-,-,-,-,-,-,-,-,-,-,-,-,-,-,-
2025-05-01 15:40:06.697,MovementDuration,xxx,20,Female,-,-,-,3,-,-,-,-,Failure,-,-,-,-,4.739,-,-,-,-,-,-,-,-,-,-,-,-,-,-,-,-,-,-,-,-,-,-,-,-,-,-,-,-,-,-,-,-,-,-,-,-,-,-,-,-,-,-,-,-,-
2025-05-01 15:40:06.698,OutcomeType,xxx,20,Female,-,-,-,3,-,-,-,-,Failure,-,-,-,-,-,-,-,-,-,-,-,-,-,-,-,-,-,-,-,-,-,-,-,-,-,-,-,-,-,-,-,-,-,-,-,-,-,-,-,-,-,-,-,-,-,-,-,-,-,-
2025-05-01 15:40:06.698,RewardCollected,xxx,20,Female,-,-,-,3,-,-,-,-,-,-,-,-,-,-,-,-,-,-,-,-,-,-,-,-,-,-,-,-,-,-,-,-,-,-,-,-,-,-,-,-,-,-,-,-,-,-,-,-,-,-,-,-,-,-,-,-,-,-,-
2025-05-01 15:40:06.698,ButtonPresses,xxx,20,Female,-,-,-,3,-,-,-,-,-,-,-,-,-,-,-,-,-,-,-,-,-,-,-,10,0.244:right|0.443:right|3.747:left|3.923:left|4.063:left|4.227:left|4.389:left|4.561:left|4.711:left|4.865:left,-,-,-,-,-,-,-,-,-,-,-,-,-,-,-,-,-,-,-,-,-,-,-,-,-,-,-,-,-,-,-,-,-,-
2025-05-01 15:40:06.700,DecisionOutcome,xxx,20,Female,True,0,Practice_LowHighRatio,3,3,4,Work,0.900,Failure,False,0,0,0,4.739,-,-,-,-,-,-,-,-,-,10,0.244:right|0.443:right|3.747:left|3.923:left|4.063:left|4.227:left|4.389:left|4.561:left|4.711:left|4.865:left,0.474,False,0.1,-,-,0.00,0.00,0,0,-,-,-,-,-,-,-,-,-,-,-,-,-,-,-,-,-,-,-,-,-,-,-,-,-
2025-05-01 15:40:06.701,ButtonPresses,xxx,20,Female,-,-,-,3,-,-,-,-,-,-,-,-,-,-,-,-,-,-,-,-,-,-,-,10,0.244:right|0.443:right|3.747:left|3.923:left|4.063:left|4.227:left|4.389:left|4.561:left|4.711:left|4.865:left,-,-,-,-,-,-,-,-,-,-,-,-,-,-,-,-,-,-,-,-,-,-,-,-,-,-,-,-,-,-,-,-,-,-
2025-05-01 15:40:06.701,MovementComplete,xxx,20,Female,-,-,-,3,-,-,-,-,-,False,-,-,-,-,-,-,-,-,-,-,-,-,-,-,-,-,-,-,-,-,-,-,-,-,-,-,-,-,-,-,-,-,-,-,-,-,-,-,-,-,-,-,-,-,-,-,-,-,-
2025-05-01 15:40:06.702,RewardCollected,xxx,20,Female,-,-,-,3,-,-,-,-,-,-,-,-,-,-,-,-,-,-,-,-,-,-,-,-,-,-,-,-,-,-,-,-,-,-,-,-,-,-,-,-,-,-,-,-,-,-,-,-,-,-,-,-,-,-,-,-,-,-,-
2025-05-01 15:40:06.848,PracticeTrialStart,xxx,20,Female,-,0,Practice_LowHighRatio,4,-,-,-,-,-,-,-,-,-,-,-,-,-,-,-,-,-,-,-,-,-,-,-,-,-,-,-,-,-,-,-,-,-,-,-,-,-,-,-,-,-,-,-,-,-,-,-,-,-,-,-,-,-,-,-
2025-05-01 15:40:06.865,InfoMessage,xxx,20,Female,-,-,-,-,-,-,-,-,-,-,-,-,-,-,-,-,-,-,-,-,-,-,-,-,-,-,-,-,-,-,-,-,-,-,-,-,-,-,-,-,-,-,-,-,-,-,-,-,-,-,-,-,-,-,-,-,-,-,-
2025-05-01 15:40:08.881,PracticeTrialStart,xxx,20,Female,True,0,-,4,-,-,-,-,-,-,-,-,-,-,-,-,-,-,-,-,-,-,-,-,-,-,-,-,-,-,-,-,-,-,-,-,-,-,-,-,-,-,-,-,-,-,-,-,-,-,-,-,-,-,-,-,-,-,-
2025-05-01 15:40:09.414,MovementStart,xxx,20,Female,-,0,-,4,-,-,-,-,-,-,-,-,-,-,-,-,-,-,-,6.50,-2.50,-,-,-,-,-,-,-,-,-,-,-,-,-,-,-,-,-,-,-,-,-,-,-,-,-,-,-,-,-,-,-,-,-,-,-,-,-,-
2025-05-01 15:40:09.514,MovementStep,xxx,20,Female,-,0,Practice_LowHighRatio,4,1,1,-,-,Pending,-,-,-,-,-,364.594,364.694,0.100,True,1,6.50,-2.50,5.50,-2.50,-,-,0.100,True,-,-,-,-,-,-,-,-,-,-,-,-,-,-,-,-,-,-,-,-,-,-,-,-,-,-,-,-,-,-,-,-
2025-05-01 15:40:09.601,MovementStart,xxx,20,Female,-,0,-,4,-,-,-,-,-,-,-,-,-,-,-,-,-,-,-,5.50,-2.50,-,-,-,-,-,-,-,-,-,-,-,-,-,-,-,-,-,-,-,-,-,-,-,-,-,-,-,-,-,-,-,-,-,-,-,-,-,-
2025-05-01 15:40:09.700,MovementStep,xxx,20,Female,-,0,Practice_LowHighRatio,4,1,1,-,-,Pending,-,-,-,-,-,364.780,364.880,0.100,True,1,5.50,-2.50,4.50,-2.50,-,-,0.100,True,-,-,-,-,-,-,-,-,-,-,-,-,-,-,-,-,-,-,-,-,-,-,-,-,-,-,-,-,-,-,-,-
2025-05-01 15:40:09.733,MovementStart,xxx,20,Female,-,0,-,4,-,-,-,-,-,-,-,-,-,-,-,-,-,-,-,4.50,-2.50,-,-,-,-,-,-,-,-,-,-,-,-,-,-,-,-,-,-,-,-,-,-,-,-,-,-,-,-,-,-,-,-,-,-,-,-,-,-
2025-05-01 15:40:09.833,MovementStep,xxx,20,Female,-,0,Practice_LowHighRatio,4,1,1,-,-,Pending,-,-,-,-,-,364.913,365.013,0.100,True,1,4.50,-2.50,3.50,-2.50,-,-,0.100,False,-,-,-,-,-,-,-,-,-,-,-,-,-,-,-,-,-,-,-,-,-,-,-,-,-,-,-,-,-,-,-,-
2025-05-01 15:40:09.887,MovementStart,xxx,20,Female,-,0,-,4,-,-,-,-,-,-,-,-,-,-,-,-,-,-,-,3.50,-2.50,-,-,-,-,-,-,-,-,-,-,-,-,-,-,-,-,-,-,-,-,-,-,-,-,-,-,-,-,-,-,-,-,-,-,-,-,-,-
2025-05-01 15:40:09.987,MovementStep,xxx,20,Female,-,0,Practice_LowHighRatio,4,1,1,-,-,Pending,-,-,-,-,-,365.067,365.167,0.099,True,1,3.50,-2.50,2.50,-2.50,-,-,0.099,True,-,-,-,-,-,-,-,-,-,-,-,-,-,-,-,-,-,-,-,-,-,-,-,-,-,-,-,-,-,-,-,-
2025-05-01 15:40:10.035,MovementStart,xxx,20,Female,-,0,-,4,-,-,-,-,-,-,-,-,-,-,-,-,-,-,-,2.50,-2.50,-,-,-,-,-,-,-,-,-,-,-,-,-,-,-,-,-,-,-,-,-,-,-,-,-,-,-,-,-,-,-,-,-,-,-,-,-,-
2025-05-01 15:40:10.062,ScoreUpdate,xxx,20,Female,True,0,-,4,-,-,-,-,-,-,10,0,40,-,-,-,-,-,-,-,-,-,-,-,-,-,-,-,-,-,-,-,-,-,-,-,-,-,-,-,-,-,-,-,-,-,-,-,-,-,-,-,-,-,-,-,-,-,-
2025-05-01 15:40:10.063,CollisionTime,xxx,20,Female,True,0,-,4,-,-,-,-,-,-,-,-,-,0.646,-,-,-,-,-,-,-,-,-,-,-,-,-,-,-,-,-,-,-,-,-,-,-,-,-,-,-,-,-,-,-,-,-,-,-,-,-,-,-,-,-,-,-,-,-
2025-05-01 15:40:10.063,MovementDuration,xxx,20,Female,-,-,-,4,-,-,-,-,Success,-,-,-,-,0.646,-,-,-,-,-,-,-,-,-,-,-,-,-,-,-,-,-,-,-,-,-,-,-,-,-,-,-,-,-,-,-,-,-,-,-,-,-,-,-,-,-,-,-,-,-
2025-05-01 15:40:10.065,DecisionOutcome,xxx,20,Female,True,0,Practice_LowHighRatio,4,1,1,Work,0.619,Success,True,10,0,0,0.646,-,-,-,-,-,-,-,-,-,5,0.429:left|0.615:left|0.748:left|0.902:left|1.048:left,0.129,False,0.1,-,-,0.00,0.00,0,0,-,-,-,-,-,-,-,-,-,-,-,-,-,-,-,-,-,-,-,-,-,-,-,-,-
2025-05-01 15:40:10.065,MovementComplete,xxx,20,Female,-,-,-,4,-,-,-,-,-,True,-,-,-,-,-,-,-,-,-,-,-,-,-,-,-,-,-,-,-,-,-,-,-,-,-,-,-,-,-,-,-,-,-,-,-,-,-,-,-,-,-,-,-,-,-,-,-,-,-
2025-05-01 15:40:10.066,RewardCollected,xxx,20,Female,-,-,-,4,-,-,-,-,-,-,-,-,-,-,-,-,-,-,-,-,-,-,-,-,-,-,-,-,-,-,-,-,-,-,-,-,-,-,-,-,-,-,-,-,-,-,-,-,-,-,-,-,-,-,-,-,-,-,-
2025-05-01 15:40:10.066,OutcomeType,xxx,20,Female,-,-,-,4,-,-,-,-,Success,-,-,-,-,-,-,-,-,-,-,-,-,-,-,-,-,-,-,-,-,-,-,-,-,-,-,-,-,-,-,-,-,-,-,-,-,-,-,-,-,-,-,-,-,-,-,-,-,-,-
2025-05-01 15:40:10.067,RewardCollected,xxx,20,Female,-,-,-,4,-,-,-,-,-,-,-,-,-,-,-,-,-,-,-,-,-,-,-,-,-,-,-,-,-,-,-,-,-,-,-,-,-,-,-,-,-,-,-,-,-,-,-,-,-,-,-,-,-,-,-,-,-,-,-
2025-05-01 15:40:10.067,ButtonPresses,xxx,20,Female,-,-,-,4,-,-,-,-,-,-,-,-,-,-,-,-,-,-,-,-,-,-,-,5,0.429:left|0.615:left|0.748:left|0.902:left|1.048:left,-,-,-,-,-,-,-,-,-,-,-,-,-,-,-,-,-,-,-,-,-,-,-,-,-,-,-,-,-,-,-,-,-,-
2025-05-01 15:40:10.133,MovementStep,xxx,20,Female,-,0,Practice_LowHighRatio,4,1,1,-,-,Success,-,-,-,-,-,365.213,365.313,0.101,True,1,2.50,-2.50,1.50,-2.50,-,-,0.101,False,-,-,-,-,-,-,-,-,-,-,-,-,-,-,-,-,-,-,-,-,-,-,-,-,-,-,-,-,-,-,-,-
2025-05-01 15:40:14.128,PracticeTrialStart,xxx,20,Female,-,0,Practice_LowHighRatio,5,-,-,-,-,-,-,-,-,-,-,-,-,-,-,-,-,-,-,-,-,-,-,-,-,-,-,-,-,-,-,-,-,-,-,-,-,-,-,-,-,-,-,-,-,-,-,-,-,-,-,-,-,-,-,-
2025-05-01 15:40:14.145,InfoMessage,xxx,20,Female,-,-,-,-,-,-,-,-,-,-,-,-,-,-,-,-,-,-,-,-,-,-,-,-,-,-,-,-,-,-,-,-,-,-,-,-,-,-,-,-,-,-,-,-,-,-,-,-,-,-,-,-,-,-,-,-,-,-,-
2025-05-01 15:40:18.490,PracticeTrialStart,xxx,20,Female,-,0,Practice_HighLowRatio,1,-,-,-,-,-,-,-,-,-,-,-,-,-,-,-,-,-,-,-,-,-,-,-,-,-,-,-,-,-,-,-,-,-,-,-,-,-,-,-,-,-,-,-,-,-,-,-,-,-,-,-,-,-,-,-
2025-05-01 15:40:18.506,InfoMessage,xxx,20,Female,-,-,-,-,-,-,-,-,-,-,-,-,-,-,-,-,-,-,-,-,-,-,-,-,-,-,-,-,-,-,-,-,-,-,-,-,-,-,-,-,-,-,-,-,-,-,-,-,-,-,-,-,-,-,-,-,-,-,-
2025-05-01 15:40:20.724,PracticeTrialStart,xxx,20,Female,True,0,-,1,-,-,-,-,-,-,-,-,-,-,-,-,-,-,-,-,-,-,-,-,-,-,-,-,-,-,-,-,-,-,-,-,-,-,-,-,-,-,-,-,-,-,-,-,-,-,-,-,-,-,-,-,-,-,-
2025-05-01 15:40:21.413,MovementStart,xxx,20,Female,-,0,-,1,-,-,-,-,-,-,-,-,-,-,-,-,-,-,-,-2.50,3.50,-,-,-,-,-,-,-,-,-,-,-,-,-,-,-,-,-,-,-,-,-,-,-,-,-,-,-,-,-,-,-,-,-,-,-,-,-,-
2025-05-01 15:40:21.512,MovementStep,xxx,20,Female,-,0,Practice_HighLowRatio,1,1,1,-,-,Pending,-,-,-,-,-,375.860,375.960,0.100,True,1,-2.50,3.50,-3.50,3.50,-,-,0.100,True,-,-,-,-,-,-,-,-,-,-,-,-,-,-,-,-,-,-,-,-,-,-,-,-,-,-,-,-,-,-,-,-
2025-05-01 15:40:21.616,MovementStart,xxx,20,Female,-,0,-,1,-,-,-,-,-,-,-,-,-,-,-,-,-,-,-,-3.50,3.50,-,-,-,-,-,-,-,-,-,-,-,-,-,-,-,-,-,-,-,-,-,-,-,-,-,-,-,-,-,-,-,-,-,-,-,-,-,-
2025-05-01 15:40:21.716,MovementStep,xxx,20,Female,-,0,Practice_HighLowRatio,1,1,1,-,-,Pending,-,-,-,-,-,376.063,376.163,0.099,True,1,-3.49,3.50,-4.49,3.50,-,-,0.099,True,-,-,-,-,-,-,-,-,-,-,-,-,-,-,-,-,-,-,-,-,-,-,-,-,-,-,-,-,-,-,-,-
2025-05-01 15:40:21.741,MovementStart,xxx,20,Female,-,0,-,1,-,-,-,-,-,-,-,-,-,-,-,-,-,-,-,-4.50,3.50,-,-,-,-,-,-,-,-,-,-,-,-,-,-,-,-,-,-,-,-,-,-,-,-,-,-,-,-,-,-,-,-,-,-,-,-,-,-
2025-05-01 15:40:21.841,MovementStep,xxx,20,Female,-,0,Practice_HighLowRatio,1,1,1,-,-,Pending,-,-,-,-,-,376.188,376.289,0.100,True,1,-4.49,3.50,-5.49,3.50,-,-,0.100,False,-,-,-,-,-,-,-,-,-,-,-,-,-,-,-,-,-,-,-,-,-,-,-,-,-,-,-,-,-,-,-,-
2025-05-01 15:40:21.914,MovementStart,xxx,20,Female,-,0,-,1,-,-,-,-,-,-,-,-,-,-,-,-,-,-,-,-5.50,3.50,-,-,-,-,-,-,-,-,-,-,-,-,-,-,-,-,-,-,-,-,-,-,-,-,-,-,-,-,-,-,-,-,-,-,-,-,-,-
2025-05-01 15:40:22.014,MovementStep,xxx,20,Female,-,0,Practice_HighLowRatio,1,1,1,-,-,Pending,-,-,-,-,-,376.361,376.461,0.100,True,1,-5.49,3.50,-6.49,3.50,-,-,0.100,False,-,-,-,-,-,-,-,-,-,-,-,-,-,-,-,-,-,-,-,-,-,-,-,-,-,-,-,-,-,-,-,-
2025-05-01 15:40:22.057,MovementStart,xxx,20,Female,-,0,-,1,-,-,-,-,-,-,-,-,-,-,-,-,-,-,-,-6.50,3.50,-,-,-,-,-,-,-,-,-,-,-,-,-,-,-,-,-,-,-,-,-,-,-,-,-,-,-,-,-,-,-,-,-,-,-,-,-,-
2025-05-01 15:40:22.074,ScoreUpdate,xxx,20,Female,True,0,-,1,-,-,-,-,-,-,10,0,50,-,-,-,-,-,-,-,-,-,-,-,-,-,-,-,-,-,-,-,-,-,-,-,-,-,-,-,-,-,-,-,-,-,-,-,-,-,-,-,-,-,-,-,-,-,-
2025-05-01 15:40:22.075,CollisionTime,xxx,20,Female,True,0,-,1,-,-,-,-,-,-,-,-,-,0.660,-,-,-,-,-,-,-,-,-,-,-,-,-,-,-,-,-,-,-,-,-,-,-,-,-,-,-,-,-,-,-,-,-,-,-,-,-,-,-,-,-,-,-,-,-
2025-05-01 15:40:22.076,MovementDuration,xxx,20,Female,-,-,-,1,-,-,-,-,Success,-,-,-,-,0.660,-,-,-,-,-,-,-,-,-,-,-,-,-,-,-,-,-,-,-,-,-,-,-,-,-,-,-,-,-,-,-,-,-,-,-,-,-,-,-,-,-,-,-,-,-
2025-05-01 15:40:22.077,DecisionOutcome,xxx,20,Female,True,0,Practice_HighLowRatio,1,1,1,Work,0.827,Success,True,10,0,0,0.660,-,-,-,-,-,-,-,-,-,5,0.585:left|0.789:left|0.914:left|1.086:left|1.230:left,0.132,False,0.1,-,-,0.00,0.00,0,0,-,-,-,-,-,-,-,-,-,-,-,-,-,-,-,-,-,-,-,-,-,-,-,-,-
2025-05-01 15:40:22.078,MovementComplete,xxx,20,Female,-,-,-,1,-,-,-,-,-,True,-,-,-,-,-,-,-,-,-,-,-,-,-,-,-,-,-,-,-,-,-,-,-,-,-,-,-,-,-,-,-,-,-,-,-,-,-,-,-,-,-,-,-,-,-,-,-,-,-
2025-05-01 15:40:22.078,RewardCollected,xxx,20,Female,-,-,-,1,-,-,-,-,-,-,-,-,-,-,-,-,-,-,-,-,-,-,-,-,-,-,-,-,-,-,-,-,-,-,-,-,-,-,-,-,-,-,-,-,-,-,-,-,-,-,-,-,-,-,-,-,-,-,-
2025-05-01 15:40:22.079,OutcomeType,xxx,20,Female,-,-,-,1,-,-,-,-,Success,-,-,-,-,-,-,-,-,-,-,-,-,-,-,-,-,-,-,-,-,-,-,-,-,-,-,-,-,-,-,-,-,-,-,-,-,-,-,-,-,-,-,-,-,-,-,-,-,-,-
2025-05-01 15:40:22.079,RewardCollected,xxx,20,Female,-,-,-,1,-,-,-,-,-,-,-,-,-,-,-,-,-,-,-,-,-,-,-,-,-,-,-,-,-,-,-,-,-,-,-,-,-,-,-,-,-,-,-,-,-,-,-,-,-,-,-,-,-,-,-,-,-,-,-
2025-05-01 15:40:22.079,ButtonPresses,xxx,20,Female,-,-,-,1,-,-,-,-,-,-,-,-,-,-,-,-,-,-,-,-,-,-,-,5,0.585:left|0.789:left|0.914:left|1.086:left|1.230:left,-,-,-,-,-,-,-,-,-,-,-,-,-,-,-,-,-,-,-,-,-,-,-,-,-,-,-,-,-,-,-,-,-,-
2025-05-01 15:40:22.157,MovementStep,xxx,20,Female,-,0,Practice_HighLowRatio,1,1,1,-,-,Success,-,-,-,-,-,376.505,376.605,0.100,True,1,-6.49,3.50,-7.49,3.50,-,-,0.100,False,-,-,-,-,-,-,-,-,-,-,-,-,-,-,-,-,-,-,-,-,-,-,-,-,-,-,-,-,-,-,-,-
2025-05-01 15:40:25.955,PracticeTrialStart,xxx,20,Female,-,0,Practice_HighLowRatio,2,-,-,-,-,-,-,-,-,-,-,-,-,-,-,-,-,-,-,-,-,-,-,-,-,-,-,-,-,-,-,-,-,-,-,-,-,-,-,-,-,-,-,-,-,-,-,-,-,-,-,-,-,-,-,-
2025-05-01 15:40:25.972,InfoMessage,xxx,20,Female,-,-,-,-,-,-,-,-,-,-,-,-,-,-,-,-,-,-,-,-,-,-,-,-,-,-,-,-,-,-,-,-,-,-,-,-,-,-,-,-,-,-,-,-,-,-,-,-,-,-,-,-,-,-,-,-,-,-,-
2025-05-01 15:40:27.891,PracticeTrialStart,xxx,20,Female,True,0,-,2,-,-,-,-,-,-,-,-,-,-,-,-,-,-,-,-,-,-,-,-,-,-,-,-,-,-,-,-,-,-,-,-,-,-,-,-,-,-,-,-,-,-,-,-,-,-,-,-,-,-,-,-,-,-,-
2025-05-01 15:40:28.775,MovementStart,xxx,20,Female,-,0,-,2,-,-,-,-,-,-,-,-,-,-,-,-,-,-,-,7.50,-3.50,-,-,-,-,-,-,-,-,-,-,-,-,-,-,-,-,-,-,-,-,-,-,-,-,-,-,-,-,-,-,-,-,-,-,-,-,-,-
2025-05-01 15:40:28.875,MovementStep,xxx,20,Female,-,0,Practice_HighLowRatio,2,2,3,-,-,Pending,-,-,-,-,-,382.497,382.894,0.397,True,3,7.50,-3.50,6.50,-3.50,-,-,0.132,False,-,-,-,-,-,-,-,-,-,-,-,-,-,-,-,-,-,-,-,-,-,-,-,-,-,-,-,-,-,-,-,-
2025-05-01 15:40:29.216,MovementStart,xxx,20,Female,-,0,-,2,-,-,-,-,-,-,-,-,-,-,-,-,-,-,-,6.50,-3.50,-,-,-,-,-,-,-,-,-,-,-,-,-,-,-,-,-,-,-,-,-,-,-,-,-,-,-,-,-,-,-,-,-,-,-,-,-,-
2025-05-01 15:40:29.317,MovementStep,xxx,20,Female,-,0,Practice_HighLowRatio,2,2,3,-,-,Pending,-,-,-,-,-,382.944,383.336,0.391,True,3,6.50,-3.50,5.50,-3.50,-,-,0.130,False,-,-,-,-,-,-,-,-,-,-,-,-,-,-,-,-,-,-,-,-,-,-,-,-,-,-,-,-,-,-,-,-
2025-05-01 15:40:29.669,MovementStart,xxx,20,Female,-,0,-,2,-,-,-,-,-,-,-,-,-,-,-,-,-,-,-,5.50,-3.50,-,-,-,-,-,-,-,-,-,-,-,-,-,-,-,-,-,-,-,-,-,-,-,-,-,-,-,-,-,-,-,-,-,-,-,-,-,-
2025-05-01 15:40:29.770,MovementStep,xxx,20,Female,-,0,Practice_HighLowRatio,2,2,3,-,-,Pending,-,-,-,-,-,383.387,383.789,0.402,True,3,5.50,-3.50,4.50,-3.50,-,-,0.134,False,-,-,-,-,-,-,-,-,-,-,-,-,-,-,-,-,-,-,-,-,-,-,-,-,-,-,-,-,-,-,-,-
2025-05-01 15:40:30.078,MovementStart,xxx,20,Female,-,0,-,2,-,-,-,-,-,-,-,-,-,-,-,-,-,-,-,4.50,-3.50,-,-,-,-,-,-,-,-,-,-,-,-,-,-,-,-,-,-,-,-,-,-,-,-,-,-,-,-,-,-,-,-,-,-,-,-,-,-
2025-05-01 15:40:30.178,MovementStep,xxx,20,Female,-,0,Practice_HighLowRatio,2,2,3,-,-,Pending,-,-,-,-,-,383.823,384.197,0.374,True,3,4.50,-3.50,3.50,-3.50,-,-,0.125,False,-,-,-,-,-,-,-,-,-,-,-,-,-,-,-,-,-,-,-,-,-,-,-,-,-,-,-,-,-,-,-,-
2025-05-01 15:40:31.013,MovementStart,xxx,20,Female,-,0,-,2,-,-,-,-,-,-,-,-,-,-,-,-,-,-,-,3.50,-3.50,-,-,-,-,-,-,-,-,-,-,-,-,-,-,-,-,-,-,-,-,-,-,-,-,-,-,-,-,-,-,-,-,-,-,-,-,-,-
2025-05-01 15:40:31.042,ScoreUpdate,xxx,20,Female,True,0,-,2,-,-,-,-,-,-,10,0,60,-,-,-,-,-,-,-,-,-,-,-,-,-,-,-,-,-,-,-,-,-,-,-,-,-,-,-,-,-,-,-,-,-,-,-,-,-,-,-,-,-,-,-,-,-,-
2025-05-01 15:40:31.043,CollisionTime,xxx,20,Female,True,0,-,2,-,-,-,-,-,-,-,-,-,2.563,-,-,-,-,-,-,-,-,-,-,-,-,-,-,-,-,-,-,-,-,-,-,-,-,-,-,-,-,-,-,-,-,-,-,-,-,-,-,-,-,-,-,-,-,-
2025-05-01 15:40:31.044,MovementDuration,xxx,20,Female,-,-,-,2,-,-,-,-,Success,-,-,-,-,2.563,-,-,-,-,-,-,-,-,-,-,-,-,-,-,-,-,-,-,-,-,-,-,-,-,-,-,-,-,-,-,-,-,-,-,-,-,-,-,-,-,-,-,-,-,-
2025-05-01 15:40:31.046,DecisionOutcome,xxx,20,Female,True,0,Practice_HighLowRatio,2,2,3,Work,0.527,Success,True,10,0,0,2.563,-,-,-,-,-,-,-,-,-,15,0.483:left|0.648:left|0.780:left|0.930:left|1.071:left|1.221:left|1.373:left|1.520:left|1.674:left|1.809:left|1.943:left|2.083:left|2.225:left|2.358:left|3.018:left,0.171,False,0.1,-,-,0.00,0.00,0,0,-,-,-,-,-,-,-,-,-,-,-,-,-,-,-,-,-,-,-,-,-,-,-,-,-
2025-05-01 15:40:31.046,MovementComplete,xxx,20,Female,-,-,-,2,-,-,-,-,-,True,-,-,-,-,-,-,-,-,-,-,-,-,-,-,-,-,-,-,-,-,-,-,-,-,-,-,-,-,-,-,-,-,-,-,-,-,-,-,-,-,-,-,-,-,-,-,-,-,-
2025-05-01 15:40:31.046,RewardCollected,xxx,20,Female,-,-,-,2,-,-,-,-,-,-,-,-,-,-,-,-,-,-,-,-,-,-,-,-,-,-,-,-,-,-,-,-,-,-,-,-,-,-,-,-,-,-,-,-,-,-,-,-,-,-,-,-,-,-,-,-,-,-,-
2025-05-01 15:40:31.047,OutcomeType,xxx,20,Female,-,-,-,2,-,-,-,-,Success,-,-,-,-,-,-,-,-,-,-,-,-,-,-,-,-,-,-,-,-,-,-,-,-,-,-,-,-,-,-,-,-,-,-,-,-,-,-,-,-,-,-,-,-,-,-,-,-,-,-
2025-05-01 15:40:31.047,RewardCollected,xxx,20,Female,-,-,-,2,-,-,-,-,-,-,-,-,-,-,-,-,-,-,-,-,-,-,-,-,-,-,-,-,-,-,-,-,-,-,-,-,-,-,-,-,-,-,-,-,-,-,-,-,-,-,-,-,-,-,-,-,-,-,-
2025-05-01 15:40:31.047,ButtonPresses,xxx,20,Female,-,-,-,2,-,-,-,-,-,-,-,-,-,-,-,-,-,-,-,-,-,-,-,15,0.483:left|0.648:left|0.780:left|0.930:left|1.071:left|1.221:left|1.373:left|1.520:left|1.674:left|1.809:left|1.943:left|2.083:left|2.225:left|2.358:left|3.018:left,-,-,-,-,-,-,-,-,-,-,-,-,-,-,-,-,-,-,-,-,-,-,-,-,-,-,-,-,-,-,-,-,-,-
2025-05-01 15:40:31.113,MovementStep,xxx,20,Female,-,0,Practice_HighLowRatio,2,2,3,-,-,Success,-,-,-,-,-,384.239,385.133,0.893,True,3,3.50,-3.50,2.50,-3.50,-,-,0.298,False,-,-,-,-,-,-,-,-,-,-,-,-,-,-,-,-,-,-,-,-,-,-,-,-,-,-,-,-,-,-,-,-
2025-05-01 15:40:33.121,PracticeTrialStart,xxx,20,Female,-,0,Practice_HighLowRatio,3,-,-,-,-,-,-,-,-,-,-,-,-,-,-,-,-,-,-,-,-,-,-,-,-,-,-,-,-,-,-,-,-,-,-,-,-,-,-,-,-,-,-,-,-,-,-,-,-,-,-,-,-,-,-,-
2025-05-01 15:40:33.137,InfoMessage,xxx,20,Female,-,-,-,-,-,-,-,-,-,-,-,-,-,-,-,-,-,-,-,-,-,-,-,-,-,-,-,-,-,-,-,-,-,-,-,-,-,-,-,-,-,-,-,-,-,-,-,-,-,-,-,-,-,-,-,-,-,-,-
2025-05-01 15:40:34.499,DecisionOutcome,xxx,20,Female,True,0,Practice_HighLowRatio,3,1,1,Skip,1.373,Skip,False,0,0,0,0.000,-,-,-,-,-,-,-,-,-,0,-,-1.000,False,0.1,Skip,3,0.00,0.00,0,0,-,-,-,-,-,-,-,-,-,-,-,-,-,-,-,-,-,-,-,-,-,-,-,-,-
2025-05-01 15:40:34.501,ScoreUpdate,xxx,20,Female,True,0,-,3,-,-,-,-,-,-,0,0,60,-,-,-,-,-,-,-,-,-,-,-,-,-,-,-,-,-,-,-,-,-,-,-,-,-,-,-,-,-,-,-,-,-,-,-,-,-,-,-,-,-,-,-,-,-,-
2025-05-01 15:40:37.645,PracticeTrialStart,xxx,20,Female,-,0,Practice_HighLowRatio,4,-,-,-,-,-,-,-,-,-,-,-,-,-,-,-,-,-,-,-,-,-,-,-,-,-,-,-,-,-,-,-,-,-,-,-,-,-,-,-,-,-,-,-,-,-,-,-,-,-,-,-,-,-,-,-
2025-05-01 15:40:37.661,InfoMessage,xxx,20,Female,-,-,-,-,-,-,-,-,-,-,-,-,-,-,-,-,-,-,-,-,-,-,-,-,-,-,-,-,-,-,-,-,-,-,-,-,-,-,-,-,-,-,-,-,-,-,-,-,-,-,-,-,-,-,-,-,-,-,-
2025-05-01 15:40:39.595,PracticeTrialStart,xxx,20,Female,True,0,-,4,-,-,-,-,-,-,-,-,-,-,-,-,-,-,-,-,-,-,-,-,-,-,-,-,-,-,-,-,-,-,-,-,-,-,-,-,-,-,-,-,-,-,-,-,-,-,-,-,-,-,-,-,-,-,-
2025-05-01 15:40:40.594,MovementStart,xxx,20,Female,-,0,-,4,-,-,-,-,-,-,-,-,-,-,-,-,-,-,-,6.50,-1.50,-,-,-,-,-,-,-,-,-,-,-,-,-,-,-,-,-,-,-,-,-,-,-,-,-,-,-,-,-,-,-,-,-,-,-,-,-,-
2025-05-01 15:40:40.695,MovementStep,xxx,20,Female,-,0,Practice_HighLowRatio,4,3,4,-,-,Pending,-,-,-,-,-,393.559,394.132,0.573,True,4,6.50,-1.50,5.50,-1.50,-,-,0.143,False,-,-,-,-,-,-,-,-,-,-,-,-,-,-,-,-,-,-,-,-,-,-,-,-,-,-,-,-,-,-,-,-
2025-05-01 15:40:41.177,MovementStart,xxx,20,Female,-,0,-,4,-,-,-,-,-,-,-,-,-,-,-,-,-,-,-,5.50,-1.50,-,-,-,-,-,-,-,-,-,-,-,-,-,-,-,-,-,-,-,-,-,-,-,-,-,-,-,-,-,-,-,-,-,-,-,-,-,-
2025-05-01 15:40:41.277,MovementStep,xxx,20,Female,-,0,Practice_HighLowRatio,4,3,4,-,-,Pending,-,-,-,-,-,394.185,394.714,0.529,True,4,5.50,-1.50,4.50,-1.50,-,-,0.132,False,-,-,-,-,-,-,-,-,-,-,-,-,-,-,-,-,-,-,-,-,-,-,-,-,-,-,-,-,-,-,-,-
2025-05-01 15:40:41.770,MovementStart,xxx,20,Female,-,0,-,4,-,-,-,-,-,-,-,-,-,-,-,-,-,-,-,4.50,-1.50,-,-,-,-,-,-,-,-,-,-,-,-,-,-,-,-,-,-,-,-,-,-,-,-,-,-,-,-,-,-,-,-,-,-,-,-,-,-
2025-05-01 15:40:41.870,MovementStep,xxx,20,Female,-,0,Practice_HighLowRatio,4,3,4,-,-,Pending,-,-,-,-,-,394.762,395.308,0.546,True,4,4.50,-1.50,3.50,-1.50,-,-,0.136,False,-,-,-,-,-,-,-,-,-,-,-,-,-,-,-,-,-,-,-,-,-,-,-,-,-,-,-,-,-,-,-,-
2025-05-01 15:40:42.541,MovementStart,xxx,20,Female,-,0,-,4,-,-,-,-,-,-,-,-,-,-,-,-,-,-,-,3.50,-1.50,-,-,-,-,-,-,-,-,-,-,-,-,-,-,-,-,-,-,-,-,-,-,-,-,-,-,-,-,-,-,-,-,-,-,-,-,-,-
2025-05-01 15:40:42.641,MovementStep,xxx,20,Female,-,0,Practice_HighLowRatio,4,3,4,-,-,Pending,-,-,-,-,-,395.366,396.078,0.712,True,4,3.50,-1.50,2.50,-1.50,-,-,0.178,False,-,-,-,-,-,-,-,-,-,-,-,-,-,-,-,-,-,-,-,-,-,-,-,-,-,-,-,-,-,-,-,-
2025-05-01 15:40:43.173,MovementStart,xxx,20,Female,-,0,-,4,-,-,-,-,-,-,-,-,-,-,-,-,-,-,-,2.50,-1.50,-,-,-,-,-,-,-,-,-,-,-,-,-,-,-,-,-,-,-,-,-,-,-,-,-,-,-,-,-,-,-,-,-,-,-,-,-,-
2025-05-01 15:40:43.184,ScoreUpdate,xxx,20,Female,True,0,-,4,-,-,-,-,-,-,10,0,70,-,-,-,-,-,-,-,-,-,-,-,-,-,-,-,-,-,-,-,-,-,-,-,-,-,-,-,-,-,-,-,-,-,-,-,-,-,-,-,-,-,-,-,-,-,-
2025-05-01 15:40:43.185,CollisionTime,xxx,20,Female,True,0,-,4,-,-,-,-,-,-,-,-,-,3.061,-,-,-,-,-,-,-,-,-,-,-,-,-,-,-,-,-,-,-,-,-,-,-,-,-,-,-,-,-,-,-,-,-,-,-,-,-,-,-,-,-,-,-,-,-
2025-05-01 15:40:43.186,MovementDuration,xxx,20,Female,-,-,-,4,-,-,-,-,Success,-,-,-,-,3.061,-,-,-,-,-,-,-,-,-,-,-,-,-,-,-,-,-,-,-,-,-,-,-,-,-,-,-,-,-,-,-,-,-,-,-,-,-,-,-,-,-,-,-,-,-
2025-05-01 15:40:43.188,DecisionOutcome,xxx,20,Female,True,0,Practice_HighLowRatio,4,3,4,Work,0.530,Success,True,10,0,0,3.061,-,-,-,-,-,-,-,-,-,20,0.423:left|0.607:left|0.735:left|0.896:left|1.050:left|1.189:left|1.337:left|1.479:left|1.626:left|1.785:left|1.928:left|2.072:left|2.230:left|2.386:left|2.536:left|2.842:left|3.008:left|3.179:left|3.339:left|3.475:left,0.153,False,0.1,-,-,0.00,0.00,0,0,-,-,-,-,-,-,-,-,-,-,-,-,-,-,-,-,-,-,-,-,-,-,-,-,-
2025-05-01 15:40:43.188,MovementComplete,xxx,20,Female,-,-,-,4,-,-,-,-,-,True,-,-,-,-,-,-,-,-,-,-,-,-,-,-,-,-,-,-,-,-,-,-,-,-,-,-,-,-,-,-,-,-,-,-,-,-,-,-,-,-,-,-,-,-,-,-,-,-,-
2025-05-01 15:40:43.188,RewardCollected,xxx,20,Female,-,-,-,4,-,-,-,-,-,-,-,-,-,-,-,-,-,-,-,-,-,-,-,-,-,-,-,-,-,-,-,-,-,-,-,-,-,-,-,-,-,-,-,-,-,-,-,-,-,-,-,-,-,-,-,-,-,-,-
2025-05-01 15:40:43.189,OutcomeType,xxx,20,Female,-,-,-,4,-,-,-,-,Success,-,-,-,-,-,-,-,-,-,-,-,-,-,-,-,-,-,-,-,-,-,-,-,-,-,-,-,-,-,-,-,-,-,-,-,-,-,-,-,-,-,-,-,-,-,-,-,-,-,-
2025-05-01 15:40:43.189,RewardCollected,xxx,20,Female,-,-,-,4,-,-,-,-,-,-,-,-,-,-,-,-,-,-,-,-,-,-,-,-,-,-,-,-,-,-,-,-,-,-,-,-,-,-,-,-,-,-,-,-,-,-,-,-,-,-,-,-,-,-,-,-,-,-,-
2025-05-01 15:40:43.189,ButtonPresses,xxx,20,Female,-,-,-,4,-,-,-,-,-,-,-,-,-,-,-,-,-,-,-,-,-,-,-,20,0.423:left|0.607:left|0.735:left|0.896:left|1.050:left|1.189:left|1.337:left|1.479:left|1.626:left|1.785:left|1.928:left|2.072:left|2.230:left|2.386:left|2.536:left|2.842:left|3.008:left|3.179:left|3.339:left|3.475:left,-,-,-,-,-,-,-,-,-,-,-,-,-,-,-,-,-,-,-,-,-,-,-,-,-,-,-,-,-,-,-,-,-,-
2025-05-01 15:40:43.273,MovementStep,xxx,20,Female,-,0,Practice_HighLowRatio,4,3,4,-,-,Success,-,-,-,-,-,396.144,396.710,0.566,True,4,2.50,-1.50,1.50,-1.50,-,-,0.141,False,-,-,-,-,-,-,-,-,-,-,-,-,-,-,-,-,-,-,-,-,-,-,-,-,-,-,-,-,-,-,-,-
2025-05-01 15:40:44.838,PracticeTrialStart,xxx,20,Female,-,0,Practice_HighLowRatio,5,-,-,-,-,-,-,-,-,-,-,-,-,-,-,-,-,-,-,-,-,-,-,-,-,-,-,-,-,-,-,-,-,-,-,-,-,-,-,-,-,-,-,-,-,-,-,-,-,-,-,-,-,-,-,-
2025-05-01 15:40:44.855,InfoMessage,xxx,20,Female,-,-,-,-,-,-,-,-,-,-,-,-,-,-,-,-,-,-,-,-,-,-,-,-,-,-,-,-,-,-,-,-,-,-,-,-,-,-,-,-,-,-,-,-,-,-,-,-,-,-,-,-,-,-,-,-,-,-,-
2025-05-01 15:40:47.064,DecisionOutcome,xxx,20,Female,True,0,Practice_HighLowRatio,5,1,1,Skip,2.221,Skip,False,0,0,0,0.000,-,-,-,-,-,-,-,-,-,0,-,-1.000,False,0.1,Skip,3,0.00,0.00,0,0,-,-,-,-,-,-,-,-,-,-,-,-,-,-,-,-,-,-,-,-,-,-,-,-,-
2025-05-01 15:40:47.066,ScoreUpdate,xxx,20,Female,True,0,-,5,-,-,-,-,-,-,0,0,70,-,-,-,-,-,-,-,-,-,-,-,-,-,-,-,-,-,-,-,-,-,-,-,-,-,-,-,-,-,-,-,-,-,-,-,-,-,-,-,-,-,-,-,-,-,-
2025-05-01 15:40:55.144,CHECK_QUESTION,xxx,20,Female,-,-,-,1,-,-,-,-,-,-,-,-,-,-,-,-,-,-,-,-,-,-,-,-,-,-,-,-,-,-,-,-,-,-,-,-,-,-,-,-,-,1,1,FruitPreference,"Choose preferred fruit between Apple(Clone) and Grapes(Clone)",T,T,True,0.421,-,-,-,-,-,-,-,-,-,-
2025-05-01 15:40:55.543,CHECK_QUESTION,xxx,20,Female,-,-,-,2,-,-,-,-,-,-,-,-,-,-,-,-,-,-,-,-,-,-,-,-,-,-,-,-,-,-,-,-,-,-,-,-,-,-,-,-,-,1,2,FruitPreference,"Choose preferred fruit between Grapes(Clone) and Watermelon(Clone)",F,T,False,0.398,-,-,-,-,-,-,-,-,-,-
2025-05-01 15:40:55.774,CHECK_QUESTION,xxx,20,Female,-,-,-,3,-,-,-,-,-,-,-,-,-,-,-,-,-,-,-,-,-,-,-,-,-,-,-,-,-,-,-,-,-,-,-,-,-,-,-,-,-,1,3,FruitPreference,"Choose preferred fruit between Grapes(Clone) and Apple(Clone)",F,T,False,0.234,-,-,-,-,-,-,-,-,-,-
2025-05-01 15:40:55.913,CHECK_QUESTION,xxx,20,Female,-,-,-,4,-,-,-,-,-,-,-,-,-,-,-,-,-,-,-,-,-,-,-,-,-,-,-,-,-,-,-,-,-,-,-,-,-,-,-,-,-,1,4,FruitPreference,"Choose preferred fruit between Apple(Clone) and Watermelon(Clone)",F,T,False,0.140,-,-,-,-,-,-,-,-,-,-
2025-05-01 15:40:56.113,CHECK_QUESTION,xxx,20,Female,-,-,-,5,-,-,-,-,-,-,-,-,-,-,-,-,-,-,-,-,-,-,-,-,-,-,-,-,-,-,-,-,-,-,-,-,-,-,-,-,-,1,5,FruitPreference,"Choose preferred fruit between Watermelon(Clone) and Grapes(Clone)",F,T,False,0.200,-,-,-,-,-,-,-,-,-,-
2025-05-01 15:40:56.257,CHECK_QUESTION,xxx,20,Female,-,-,-,6,-,-,-,-,-,-,-,-,-,-,-,-,-,-,-,-,-,-,-,-,-,-,-,-,-,-,-,-,-,-,-,-,-,-,-,-,-,1,6,FruitPreference,"Choose preferred fruit between Watermelon(Clone) and Apple(Clone)",T,T,True,0.144,-,-,-,-,-,-,-,-,-,-
2025-05-01 15:40:56.259,ExperimentEnd,xxx,20,Female,-,-,-,-,-,-,-,-,-,-,-,-,-,-,-,-,-,-,-,-,-,-,-,-,-,-,-,-,-,-,-,-,-,-,-,-,-,-,-,-,-,-,-,-,-,-,-,-,-,-,-,-,-,-,-,-,-,-,-
2025-05-01 15:41:02.809,CHECK_QUESTION,xxx,20,Female,-,-,-,1,-,-,-,-,-,-,-,-,-,-,-,-,-,-,-,-,-,-,-,-,-,-,-,-,-,-,-,-,-,-,-,-,-,-,-,-,-,2,1,FruitFrequency,How often did you see this Apple on Green island?,T,T,True,6.404,-,-,-,-,-,-,-,-,-,-
2025-05-01 15:41:06.440,CHECK_QUESTION,xxx,20,Female,-,-,-,2,-,-,-,-,-,-,-,-,-,-,-,-,-,-,-,-,-,-,-,-,-,-,-,-,-,-,-,-,-,-,-,-,-,-,-,-,-,2,2,FruitFrequency,How often did you see this Grapes on Green island?,T,T,True,0.649,-,-,-,-,-,-,-,-,-,-
2025-05-01 15:41:10.435,CHECK_QUESTION,xxx,20,Female,-,-,-,3,-,-,-,-,-,-,-,-,-,-,-,-,-,-,-,-,-,-,-,-,-,-,-,-,-,-,-,-,-,-,-,-,-,-,-,-,-,2,3,FruitFrequency,How often did you see this Watermelon on Green island?,T,T,True,1.003,-,-,-,-,-,-,-,-,-,-
2025-05-01 15:41:15.221,CHECK_QUESTION,xxx,20,Female,-,-,-,4,-,-,-,-,-,-,-,-,-,-,-,-,-,-,-,-,-,-,-,-,-,-,-,-,-,-,-,-,-,-,-,-,-,-,-,-,-,2,4,FruitFrequency,How often did you see this Apple on Blue island?,T,T,True,1.790,-,-,-,-,-,-,-,-,-,-
2025-05-01 15:41:18.958,CHECK_QUESTION,xxx,20,Female,-,-,-,5,-,-,-,-,-,-,-,-,-,-,-,-,-,-,-,-,-,-,-,-,-,-,-,-,-,-,-,-,-,-,-,-,-,-,-,-,-,2,5,FruitFrequency,How often did you see this Watermelon on Blue island?,F,T,False,0.747,-,-,-,-,-,-,-,-,-,-
2025-05-01 15:41:24.058,CHECK_QUESTION,xxx,20,Female,-,-,-,6,-,-,-,-,-,-,-,-,-,-,-,-,-,-,-,-,-,-,-,-,-,-,-,-,-,-,-,-,-,-,-,-,-,-,-,-,-,2,6,FruitFrequency,How often did you see this Grapes on Blue island?,T,T,True,2.107,-,-,-,-,-,-,-,-,-,-
2025-05-01 15:41:27.051,ExperimentEnd,xxx,20,Female,-,-,-,-,-,-,-,-,-,-,-,-,-,-,-,-,-,-,-,-,-,-,-,-,-,-,-,-,-,-,-,-,-,-,-,-,-,-,-,-,-,-,-,-,-,-,-,-,-,-,-,-,-,-,-,-,-,-,-
2025-05-01 15:41:29.746,CHECK_QUESTION,xxx,20,Female,-,-,-,1,-,-,-,-,-,-,-,-,-,-,-,-,-,-,-,-,-,-,-,-,-,-,-,-,-,-,-,-,-,-,-,-,-,-,-,-,-,3,1,ComprehensionQuiz,Which of the two FRUITS needs more presses to get?,T,T,True,2.551,-,-,-,-,-,-,-,-,-,-
2025-05-01 15:41:34.805,CHECK_QUESTION,xxx,20,Female,-,-,-,2,-,-,-,-,-,-,-,-,-,-,-,-,-,-,-,-,-,-,-,-,-,-,-,-,-,-,-,-,-,-,-,-,-,-,-,-,-,3,2,ComprehensionQuiz,Your objective in the game is to:,T,T,True,1.075,-,-,-,-,-,-,-,-,-,-
2025-05-01 15:41:39.504,CHECK_QUESTION,xxx,20,Female,-,-,-,3,-,-,-,-,-,-,-,-,-,-,-,-,-,-,-,-,-,-,-,-,-,-,-,-,-,-,-,-,-,-,-,-,-,-,-,-,-,3,3,ComprehensionQuiz,You will visit two islands during your time in the game. What can differ between the two islands?,T,T,True,0.714,-,-,-,-,-,-,-,-,-,-
2025-05-01 15:41:44.816,CHECK_QUESTION,xxx,20,Female,-,-,-,4,-,-,-,-,-,-,-,-,-,-,-,-,-,-,-,-,-,-,-,-,-,-,-,-,-,-,-,-,-,-,-,-,-,-,-,-,-,3,4,ComprehensionQuiz,What does it mean when you successfully collect a fruit?,T,T,True,1.326,-,-,-,-,-,-,-,-,-,-
2025-05-01 15:41:48.812,CHECK_PHASE_COMPLETE,xxx,20,Female,-,-,-,-,-,-,-,-,-,-,-,-,-,-,-,-,-,-,-,-,-,-,-,-,-,-,-,-,-,-,-,-,-,-,-,-,-,-,-,-,-,3,-,-,-,-,-,-,-,2,5,4,11,-,-,-,-,-,-
2025-05-01 15:41:52.244,ScoreReset,xxx,20,Female,True,0,-,0,-,-,-,-,-,-,-,-,-,-,-,-,-,-,-,-,-,-,-,-,-,-,-,-,-,-,-,-,-,-,-,-,-,-,-,-,-,-,-,-,-,-,-,-,-,-,-,-,-,-,-,-,-,-,-
2025-05-01 15:41:56.178,PracticeTrialStart,xxx,20,Female,-,0,Practice_EqualRatio,1,-,-,-,-,-,-,-,-,-,-,-,-,-,-,-,-,-,-,-,-,-,-,-,-,-,-,-,-,-,-,-,-,-,-,-,-,-,-,-,-,-,-,-,-,-,-,-,-,-,-,-,-,-,-,-
2025-05-01 15:41:56.195,InfoMessage,xxx,20,Female,-,-,-,-,-,-,-,-,-,-,-,-,-,-,-,-,-,-,-,-,-,-,-,-,-,-,-,-,-,-,-,-,-,-,-,-,-,-,-,-,-,-,-,-,-,-,-,-,-,-,-,-,-,-,-,-,-,-,-
2025-05-01 15:41:58.351,PracticeTrialStart,xxx,20,Female,True,0,-,1,-,-,-,-,-,-,-,-,-,-,-,-,-,-,-,-,-,-,-,-,-,-,-,-,-,-,-,-,-,-,-,-,-,-,-,-,-,-,-,-,-,-,-,-,-,-,-,-,-,-,-,-,-,-,-
2025-05-01 15:41:59.144,MovementStart,xxx,20,Female,-,0,-,1,-,-,-,-,-,-,-,-,-,-,-,-,-,-,-,-5.50,-2.50,-,-,-,-,-,-,-,-,-,-,-,-,-,-,-,-,-,-,-,-,-,-,-,-,-,-,-,-,-,-,-,-,-,-,-,-,-,-
2025-05-01 15:41:59.245,MovementStep,xxx,20,Female,-,0,Practice_EqualRatio,1,1,1,-,-,Pending,-,-,-,-,-,470.969,471.069,0.100,True,1,-5.50,-2.50,-4.50,-2.50,-,-,0.100,False,-,-,-,-,-,-,-,-,-,-,-,-,-,-,-,-,-,-,-,-,-,-,-,-,-,-,-,-,-,-,-,-
2025-05-01 15:41:59.295,MovementStart,xxx,20,Female,-,0,-,1,-,-,-,-,-,-,-,-,-,-,-,-,-,-,-,-4.50,-2.50,-,-,-,-,-,-,-,-,-,-,-,-,-,-,-,-,-,-,-,-,-,-,-,-,-,-,-,-,-,-,-,-,-,-,-,-,-,-
2025-05-01 15:41:59.395,MovementStep,xxx,20,Female,-,0,Practice_EqualRatio,1,1,1,-,-,Pending,-,-,-,-,-,471.119,471.220,0.100,True,1,-4.50,-2.50,-3.50,-2.50,-,-,0.100,False,-,-,-,-,-,-,-,-,-,-,-,-,-,-,-,-,-,-,-,-,-,-,-,-,-,-,-,-,-,-,-,-
2025-05-01 15:41:59.441,MovementStart,xxx,20,Female,-,0,-,1,-,-,-,-,-,-,-,-,-,-,-,-,-,-,-,-3.50,-2.50,-,-,-,-,-,-,-,-,-,-,-,-,-,-,-,-,-,-,-,-,-,-,-,-,-,-,-,-,-,-,-,-,-,-,-,-,-,-
2025-05-01 15:41:59.541,MovementStep,xxx,20,Female,-,0,Practice_EqualRatio,1,1,1,-,-,Pending,-,-,-,-,-,471.266,471.366,0.100,True,1,-3.50,-2.50,-2.50,-2.50,-,-,0.100,False,-,-,-,-,-,-,-,-,-,-,-,-,-,-,-,-,-,-,-,-,-,-,-,-,-,-,-,-,-,-,-,-
2025-05-01 15:41:59.582,MovementStart,xxx,20,Female,-,0,-,1,-,-,-,-,-,-,-,-,-,-,-,-,-,-,-,-2.50,-2.50,-,-,-,-,-,-,-,-,-,-,-,-,-,-,-,-,-,-,-,-,-,-,-,-,-,-,-,-,-,-,-,-,-,-,-,-,-,-
2025-05-01 15:41:59.682,MovementStep,xxx,20,Female,-,0,Practice_EqualRatio,1,1,1,-,-,Pending,-,-,-,-,-,471.407,471.507,0.100,True,1,-2.50,-2.50,-1.50,-2.50,-,-,0.100,True,-,-,-,-,-,-,-,-,-,-,-,-,-,-,-,-,-,-,-,-,-,-,-,-,-,-,-,-,-,-,-,-
2025-05-01 15:41:59.717,MovementStart,xxx,20,Female,-,0,-,1,-,-,-,-,-,-,-,-,-,-,-,-,-,-,-,-1.50,-2.50,-,-,-,-,-,-,-,-,-,-,-,-,-,-,-,-,-,-,-,-,-,-,-,-,-,-,-,-,-,-,-,-,-,-,-,-,-,-
2025-05-01 15:41:59.737,ScoreUpdate,xxx,20,Female,True,0,-,1,-,-,-,-,-,-,10,0,10,-,-,-,-,-,-,-,-,-,-,-,-,-,-,-,-,-,-,-,-,-,-,-,-,-,-,-,-,-,-,-,-,-,-,-,-,-,-,-,-,-,-,-,-,-,-
2025-05-01 15:41:59.737,CollisionTime,xxx,20,Female,True,0,-,1,-,-,-,-,-,-,-,-,-,0.591,-,-,-,-,-,-,-,-,-,-,-,-,-,-,-,-,-,-,-,-,-,-,-,-,-,-,-,-,-,-,-,-,-,-,-,-,-,-,-,-,-,-,-,-,-
2025-05-01 15:41:59.738,MovementDuration,xxx,20,Female,-,-,-,1,-,-,-,-,Success,-,-,-,-,0.591,-,-,-,-,-,-,-,-,-,-,-,-,-,-,-,-,-,-,-,-,-,-,-,-,-,-,-,-,-,-,-,-,-,-,-,-,-,-,-,-,-,-,-,-,-
2025-05-01 15:41:59.740,DecisionOutcome,xxx,20,Female,True,0,Practice_EqualRatio,1,1,1,Work,0.754,Success,True,10,0,0,0.591,-,-,-,-,-,-,-,-,-,5,0.690:right|0.841:right|0.987:right|1.128:right|1.263:right,0.118,False,0.1,-,-,0.00,0.00,0,0,-,-,-,-,-,-,-,-,-,-,-,-,-,-,-,-,-,-,-,-,-,-,-,-,-
2025-05-01 15:41:59.740,MovementComplete,xxx,20,Female,-,-,-,1,-,-,-,-,-,True,-,-,-,-,-,-,-,-,-,-,-,-,-,-,-,-,-,-,-,-,-,-,-,-,-,-,-,-,-,-,-,-,-,-,-,-,-,-,-,-,-,-,-,-,-,-,-,-,-
2025-05-01 15:41:59.741,RewardCollected,xxx,20,Female,-,-,-,1,-,-,-,-,-,-,-,-,-,-,-,-,-,-,-,-,-,-,-,-,-,-,-,-,-,-,-,-,-,-,-,-,-,-,-,-,-,-,-,-,-,-,-,-,-,-,-,-,-,-,-,-,-,-,-
2025-05-01 15:41:59.741,OutcomeType,xxx,20,Female,-,-,-,1,-,-,-,-,Success,-,-,-,-,-,-,-,-,-,-,-,-,-,-,-,-,-,-,-,-,-,-,-,-,-,-,-,-,-,-,-,-,-,-,-,-,-,-,-,-,-,-,-,-,-,-,-,-,-,-
2025-05-01 15:41:59.741,RewardCollected,xxx,20,Female,-,-,-,1,-,-,-,-,-,-,-,-,-,-,-,-,-,-,-,-,-,-,-,-,-,-,-,-,-,-,-,-,-,-,-,-,-,-,-,-,-,-,-,-,-,-,-,-,-,-,-,-,-,-,-,-,-,-,-
2025-05-01 15:41:59.742,ButtonPresses,xxx,20,Female,-,-,-,1,-,-,-,-,-,-,-,-,-,-,-,-,-,-,-,-,-,-,-,5,0.690:right|0.841:right|0.987:right|1.128:right|1.263:right,-,-,-,-,-,-,-,-,-,-,-,-,-,-,-,-,-,-,-,-,-,-,-,-,-,-,-,-,-,-,-,-,-,-
2025-05-01 15:41:59.817,MovementStep,xxx,20,Female,-,0,Practice_EqualRatio,1,1,1,-,-,Success,-,-,-,-,-,471.541,471.641,0.100,True,1,-1.50,-2.50,-0.50,-2.50,-,-,0.100,False,-,-,-,-,-,-,-,-,-,-,-,-,-,-,-,-,-,-,-,-,-,-,-,-,-,-,-,-,-,-,-,-
2025-05-01 15:42:03.584,PracticeTrialStart,xxx,20,Female,-,0,Practice_EqualRatio,2,-,-,-,-,-,-,-,-,-,-,-,-,-,-,-,-,-,-,-,-,-,-,-,-,-,-,-,-,-,-,-,-,-,-,-,-,-,-,-,-,-,-,-,-,-,-,-,-,-,-,-,-,-,-,-
2025-05-01 15:42:03.600,InfoMessage,xxx,20,Female,-,-,-,-,-,-,-,-,-,-,-,-,-,-,-,-,-,-,-,-,-,-,-,-,-,-,-,-,-,-,-,-,-,-,-,-,-,-,-,-,-,-,-,-,-,-,-,-,-,-,-,-,-,-,-,-,-,-,-
2025-05-01 15:42:05.709,PracticeTrialStart,xxx,20,Female,True,0,-,2,-,-,-,-,-,-,-,-,-,-,-,-,-,-,-,-,-,-,-,-,-,-,-,-,-,-,-,-,-,-,-,-,-,-,-,-,-,-,-,-,-,-,-,-,-,-,-,-,-,-,-,-,-,-,-
2025-05-01 15:42:08.165,MovementStart,xxx,20,Female,-,0,-,2,-,-,-,-,-,-,-,-,-,-,-,-,-,-,-,1.50,2.50,-,-,-,-,-,-,-,-,-,-,-,-,-,-,-,-,-,-,-,-,-,-,-,-,-,-,-,-,-,-,-,-,-,-,-,-,-,-
2025-05-01 15:42:08.265,MovementStep,xxx,20,Female,-,0,Practice_EqualRatio,2,3,4,-,-,Pending,-,-,-,-,-,478.894,479.654,0.760,True,4,1.50,2.50,0.50,2.50,-,-,0.190,False,-,-,-,-,-,-,-,-,-,-,-,-,-,-,-,-,-,-,-,-,-,-,-,-,-,-,-,-,-,-,-,-
2025-05-01 15:42:09.027,MovementStart,xxx,20,Female,-,0,-,2,-,-,-,-,-,-,-,-,-,-,-,-,-,-,-,0.50,2.50,-,-,-,-,-,-,-,-,-,-,-,-,-,-,-,-,-,-,-,-,-,-,-,-,-,-,-,-,-,-,-,-,-,-,-,-,-,-
2025-05-01 15:42:09.128,MovementStep,xxx,20,Female,-,0,Practice_EqualRatio,2,3,4,-,-,Pending,-,-,-,-,-,479.767,480.517,0.749,True,4,0.50,2.50,-0.50,2.50,-,-,0.187,False,-,-,-,-,-,-,-,-,-,-,-,-,-,-,-,-,-,-,-,-,-,-,-,-,-,-,-,-,-,-,-,-
2025-05-01 15:42:09.923,MovementStart,xxx,20,Female,-,0,-,2,-,-,-,-,-,-,-,-,-,-,-,-,-,-,-,-0.50,2.50,-,-,-,-,-,-,-,-,-,-,-,-,-,-,-,-,-,-,-,-,-,-,-,-,-,-,-,-,-,-,-,-,-,-,-,-,-,-
2025-05-01 15:42:10.023,MovementStep,xxx,20,Female,-,0,Practice_EqualRatio,2,3,4,-,-,Pending,-,-,-,-,-,480.647,481.412,0.765,True,4,-0.50,2.50,-1.50,2.50,-,-,0.191,False,-,-,-,-,-,-,-,-,-,-,-,-,-,-,-,-,-,-,-,-,-,-,-,-,-,-,-,-,-,-,-,-
2025-05-01 15:42:10.796,MovementDuration,xxx,20,Female,-,-,-,2,-,-,-,-,Failure,-,-,-,-,3.290,-,-,-,-,-,-,-,-,-,-,-,-,-,-,-,-,-,-,-,-,-,-,-,-,-,-,-,-,-,-,-,-,-,-,-,-,-,-,-,-,-,-,-,-,-
2025-05-01 15:42:10.796,OutcomeType,xxx,20,Female,-,-,-,2,-,-,-,-,Failure,-,-,-,-,-,-,-,-,-,-,-,-,-,-,-,-,-,-,-,-,-,-,-,-,-,-,-,-,-,-,-,-,-,-,-,-,-,-,-,-,-,-,-,-,-,-,-,-,-,-
2025-05-01 15:42:10.797,RewardCollected,xxx,20,Female,-,-,-,2,-,-,-,-,-,-,-,-,-,-,-,-,-,-,-,-,-,-,-,-,-,-,-,-,-,-,-,-,-,-,-,-,-,-,-,-,-,-,-,-,-,-,-,-,-,-,-,-,-,-,-,-,-,-,-
2025-05-01 15:42:10.797,ButtonPresses,xxx,20,Female,-,-,-,2,-,-,-,-,-,-,-,-,-,-,-,-,-,-,-,-,-,-,-,14,1.693:left|1.934:left|2.135:left|2.353:left|2.566:left|2.776:left|2.988:left|3.215:left|3.446:left|3.684:left|3.909:left|4.110:left|4.330:left|4.578:left,-,-,-,-,-,-,-,-,-,-,-,-,-,-,-,-,-,-,-,-,-,-,-,-,-,-,-,-,-,-,-,-,-,-
2025-05-01 15:42:10.799,DecisionOutcome,xxx,20,Female,True,0,Practice_EqualRatio,2,3,4,Work,0.711,Failure,False,0,0,0,3.290,-,-,-,-,-,-,-,-,-,14,1.693:left|1.934:left|2.135:left|2.353:left|2.566:left|2.776:left|2.988:left|3.215:left|3.446:left|3.684:left|3.909:left|4.110:left|4.330:left|4.578:left,0.235,False,0.1,-,-,0.00,0.00,0,0,-,-,-,-,-,-,-,-,-,-,-,-,-,-,-,-,-,-,-,-,-,-,-,-,-
2025-05-01 15:42:10.800,ButtonPresses,xxx,20,Female,-,-,-,2,-,-,-,-,-,-,-,-,-,-,-,-,-,-,-,-,-,-,-,14,1.693:left|1.934:left|2.135:left|2.353:left|2.566:left|2.776:left|2.988:left|3.215:left|3.446:left|3.684:left|3.909:left|4.110:left|4.330:left|4.578:left,-,-,-,-,-,-,-,-,-,-,-,-,-,-,-,-,-,-,-,-,-,-,-,-,-,-,-,-,-,-,-,-,-,-
2025-05-01 15:42:10.800,MovementComplete,xxx,20,Female,-,-,-,2,-,-,-,-,-,False,-,-,-,-,-,-,-,-,-,-,-,-,-,-,-,-,-,-,-,-,-,-,-,-,-,-,-,-,-,-,-,-,-,-,-,-,-,-,-,-,-,-,-,-,-,-,-,-,-
2025-05-01 15:42:10.800,RewardCollected,xxx,20,Female,-,-,-,2,-,-,-,-,-,-,-,-,-,-,-,-,-,-,-,-,-,-,-,-,-,-,-,-,-,-,-,-,-,-,-,-,-,-,-,-,-,-,-,-,-,-,-,-,-,-,-,-,-,-,-,-,-,-,-
2025-05-01 15:42:10.950,PracticeTrialStart,xxx,20,Female,-,0,Practice_EqualRatio,3,-,-,-,-,-,-,-,-,-,-,-,-,-,-,-,-,-,-,-,-,-,-,-,-,-,-,-,-,-,-,-,-,-,-,-,-,-,-,-,-,-,-,-,-,-,-,-,-,-,-,-,-,-,-,-
2025-05-01 15:42:10.967,InfoMessage,xxx,20,Female,-,-,-,-,-,-,-,-,-,-,-,-,-,-,-,-,-,-,-,-,-,-,-,-,-,-,-,-,-,-,-,-,-,-,-,-,-,-,-,-,-,-,-,-,-,-,-,-,-,-,-,-,-,-,-,-,-,-,-
2025-05-01 15:42:12.472,DecisionOutcome,xxx,20,Female,True,0,Practice_EqualRatio,3,2,3,Skip,1.516,Skip,False,0,0,0,0.000,-,-,-,-,-,-,-,-,-,0,-,-1.000,False,0.1,Skip,3,0.00,0.00,0,0,-,-,-,-,-,-,-,-,-,-,-,-,-,-,-,-,-,-,-,-,-,-,-,-,-
2025-05-01 15:42:12.474,ScoreUpdate,xxx,20,Female,True,0,-,3,-,-,-,-,-,-,0,0,10,-,-,-,-,-,-,-,-,-,-,-,-,-,-,-,-,-,-,-,-,-,-,-,-,-,-,-,-,-,-,-,-,-,-,-,-,-,-,-,-,-,-,-,-,-,-
2025-05-01 15:42:15.629,PracticeTrialStart,xxx,20,Female,-,0,Practice_EqualRatio,4,-,-,-,-,-,-,-,-,-,-,-,-,-,-,-,-,-,-,-,-,-,-,-,-,-,-,-,-,-,-,-,-,-,-,-,-,-,-,-,-,-,-,-,-,-,-,-,-,-,-,-,-,-,-,-
2025-05-01 15:42:15.647,InfoMessage,xxx,20,Female,-,-,-,-,-,-,-,-,-,-,-,-,-,-,-,-,-,-,-,-,-,-,-,-,-,-,-,-,-,-,-,-,-,-,-,-,-,-,-,-,-,-,-,-,-,-,-,-,-,-,-,-,-,-,-,-,-,-,-
2025-05-01 15:42:17.618,PracticeTrialStart,xxx,20,Female,True,0,-,4,-,-,-,-,-,-,-,-,-,-,-,-,-,-,-,-,-,-,-,-,-,-,-,-,-,-,-,-,-,-,-,-,-,-,-,-,-,-,-,-,-,-,-,-,-,-,-,-,-,-,-,-,-,-,-
2025-05-01 15:42:18.375,MovementStart,xxx,20,Female,-,0,-,4,-,-,-,-,-,-,-,-,-,-,-,-,-,-,-,-3.50,-3.50,-,-,-,-,-,-,-,-,-,-,-,-,-,-,-,-,-,-,-,-,-,-,-,-,-,-,-,-,-,-,-,-,-,-,-,-,-,-
2025-05-01 15:42:18.475,MovementStep,xxx,20,Female,-,0,Practice_EqualRatio,4,1,1,-,-,Pending,-,-,-,-,-,489.171,489.272,0.100,True,1,-3.50,-3.50,-2.50,-3.50,-,-,0.100,False,-,-,-,-,-,-,-,-,-,-,-,-,-,-,-,-,-,-,-,-,-,-,-,-,-,-,-,-,-,-,-,-
2025-05-01 15:42:18.556,MovementStart,xxx,20,Female,-,0,-,4,-,-,-,-,-,-,-,-,-,-,-,-,-,-,-,-2.50,-3.50,-,-,-,-,-,-,-,-,-,-,-,-,-,-,-,-,-,-,-,-,-,-,-,-,-,-,-,-,-,-,-,-,-,-,-,-,-,-
2025-05-01 15:42:18.656,MovementStep,xxx,20,Female,-,0,Practice_EqualRatio,4,1,1,-,-,Pending,-,-,-,-,-,489.353,489.453,0.100,True,1,-2.50,-3.50,-1.50,-3.50,-,-,0.100,False,-,-,-,-,-,-,-,-,-,-,-,-,-,-,-,-,-,-,-,-,-,-,-,-,-,-,-,-,-,-,-,-
2025-05-01 15:42:18.705,MovementStart,xxx,20,Female,-,0,-,4,-,-,-,-,-,-,-,-,-,-,-,-,-,-,-,-1.50,-3.50,-,-,-,-,-,-,-,-,-,-,-,-,-,-,-,-,-,-,-,-,-,-,-,-,-,-,-,-,-,-,-,-,-,-,-,-,-,-
2025-05-01 15:42:18.805,MovementStep,xxx,20,Female,-,0,Practice_EqualRatio,4,1,1,-,-,Pending,-,-,-,-,-,489.502,489.602,0.100,True,1,-1.50,-3.50,-0.50,-3.50,-,-,0.100,False,-,-,-,-,-,-,-,-,-,-,-,-,-,-,-,-,-,-,-,-,-,-,-,-,-,-,-,-,-,-,-,-
2025-05-01 15:42:18.846,MovementStart,xxx,20,Female,-,0,-,4,-,-,-,-,-,-,-,-,-,-,-,-,-,-,-,-0.50,-3.50,-,-,-,-,-,-,-,-,-,-,-,-,-,-,-,-,-,-,-,-,-,-,-,-,-,-,-,-,-,-,-,-,-,-,-,-,-,-
2025-05-01 15:42:18.946,MovementStep,xxx,20,Female,-,0,Practice_EqualRatio,4,1,1,-,-,Pending,-,-,-,-,-,489.643,489.743,0.100,True,1,-0.50,-3.50,0.50,-3.50,-,-,0.100,False,-,-,-,-,-,-,-,-,-,-,-,-,-,-,-,-,-,-,-,-,-,-,-,-,-,-,-,-,-,-,-,-
2025-05-01 15:42:18.992,MovementStart,xxx,20,Female,-,0,-,4,-,-,-,-,-,-,-,-,-,-,-,-,-,-,-,0.50,-3.50,-,-,-,-,-,-,-,-,-,-,-,-,-,-,-,-,-,-,-,-,-,-,-,-,-,-,-,-,-,-,-,-,-,-,-,-,-,-
2025-05-01 15:42:19.005,ScoreUpdate,xxx,20,Female,True,0,-,4,-,-,-,-,-,-,10,0,20,-,-,-,-,-,-,-,-,-,-,-,-,-,-,-,-,-,-,-,-,-,-,-,-,-,-,-,-,-,-,-,-,-,-,-,-,-,-,-,-,-,-,-,-,-,-
2025-05-01 15:42:19.005,CollisionTime,xxx,20,Female,True,0,-,4,-,-,-,-,-,-,-,-,-,0.629,-,-,-,-,-,-,-,-,-,-,-,-,-,-,-,-,-,-,-,-,-,-,-,-,-,-,-,-,-,-,-,-,-,-,-,-,-,-,-,-,-,-,-,-,-
2025-05-01 15:42:19.006,MovementDuration,xxx,20,Female,-,-,-,4,-,-,-,-,Success,-,-,-,-,0.629,-,-,-,-,-,-,-,-,-,-,-,-,-,-,-,-,-,-,-,-,-,-,-,-,-,-,-,-,-,-,-,-,-,-,-,-,-,-,-,-,-,-,-,-,-
2025-05-01 15:42:19.008,DecisionOutcome,xxx,20,Female,True,0,Practice_EqualRatio,4,1,1,Work,0.578,Success,True,10,0,0,0.629,-,-,-,-,-,-,-,-,-,5,0.653:right|0.834:right|0.983:right|1.125:right|1.270:right,0.126,False,0.1,-,-,0.00,0.00,0,0,-,-,-,-,-,-,-,-,-,-,-,-,-,-,-,-,-,-,-,-,-,-,-,-,-
2025-05-01 15:42:19.008,MovementComplete,xxx,20,Female,-,-,-,4,-,-,-,-,-,True,-,-,-,-,-,-,-,-,-,-,-,-,-,-,-,-,-,-,-,-,-,-,-,-,-,-,-,-,-,-,-,-,-,-,-,-,-,-,-,-,-,-,-,-,-,-,-,-,-
2025-05-01 15:42:19.009,RewardCollected,xxx,20,Female,-,-,-,4,-,-,-,-,-,-,-,-,-,-,-,-,-,-,-,-,-,-,-,-,-,-,-,-,-,-,-,-,-,-,-,-,-,-,-,-,-,-,-,-,-,-,-,-,-,-,-,-,-,-,-,-,-,-,-
2025-05-01 15:42:19.009,OutcomeType,xxx,20,Female,-,-,-,4,-,-,-,-,Success,-,-,-,-,-,-,-,-,-,-,-,-,-,-,-,-,-,-,-,-,-,-,-,-,-,-,-,-,-,-,-,-,-,-,-,-,-,-,-,-,-,-,-,-,-,-,-,-,-,-
2025-05-01 15:42:19.009,RewardCollected,xxx,20,Female,-,-,-,4,-,-,-,-,-,-,-,-,-,-,-,-,-,-,-,-,-,-,-,-,-,-,-,-,-,-,-,-,-,-,-,-,-,-,-,-,-,-,-,-,-,-,-,-,-,-,-,-,-,-,-,-,-,-,-
2025-05-01 15:42:19.010,ButtonPresses,xxx,20,Female,-,-,-,4,-,-,-,-,-,-,-,-,-,-,-,-,-,-,-,-,-,-,-,5,0.653:right|0.834:right|0.983:right|1.125:right|1.270:right,-,-,-,-,-,-,-,-,-,-,-,-,-,-,-,-,-,-,-,-,-,-,-,-,-,-,-,-,-,-,-,-,-,-
2025-05-01 15:42:19.092,MovementStep,xxx,20,Female,-,0,Practice_EqualRatio,4,1,1,-,-,Success,-,-,-,-,-,489.789,489.889,0.100,True,1,0.50,-3.50,1.50,-3.50,-,-,0.100,False,-,-,-,-,-,-,-,-,-,-,-,-,-,-,-,-,-,-,-,-,-,-,-,-,-,-,-,-,-,-,-,-
2025-05-01 15:42:22.855,PracticeTrialStart,xxx,20,Female,-,0,Practice_EqualRatio,5,-,-,-,-,-,-,-,-,-,-,-,-,-,-,-,-,-,-,-,-,-,-,-,-,-,-,-,-,-,-,-,-,-,-,-,-,-,-,-,-,-,-,-,-,-,-,-,-,-,-,-,-,-,-,-
2025-05-01 15:42:22.871,InfoMessage,xxx,20,Female,-,-,-,-,-,-,-,-,-,-,-,-,-,-,-,-,-,-,-,-,-,-,-,-,-,-,-,-,-,-,-,-,-,-,-,-,-,-,-,-,-,-,-,-,-,-,-,-,-,-,-,-,-,-,-,-,-,-,-
2025-05-01 15:42:24.863,PracticeTrialStart,xxx,20,Female,True,0,-,5,-,-,-,-,-,-,-,-,-,-,-,-,-,-,-,-,-,-,-,-,-,-,-,-,-,-,-,-,-,-,-,-,-,-,-,-,-,-,-,-,-,-,-,-,-,-,-,-,-,-,-,-,-,-,-
2025-05-01 15:42:26.158,MovementStart,xxx,20,Female,-,0,-,5,-,-,-,-,-,-,-,-,-,-,-,-,-,-,-,5.50,-0.50,-,-,-,-,-,-,-,-,-,-,-,-,-,-,-,-,-,-,-,-,-,-,-,-,-,-,-,-,-,-,-,-,-,-,-,-,-,-
2025-05-01 15:42:26.258,MovementStep,xxx,20,Female,-,0,Practice_EqualRatio,5,3,4,-,-,Pending,-,-,-,-,-,495.834,496.627,0.793,True,4,5.50,-0.50,4.50,-0.50,-,-,0.198,False,-,-,-,-,-,-,-,-,-,-,-,-,-,-,-,-,-,-,-,-,-,-,-,-,-,-,-,-,-,-,-,-
2025-05-01 15:42:26.769,MovementStart,xxx,20,Female,-,0,-,5,-,-,-,-,-,-,-,-,-,-,-,-,-,-,-,4.50,-0.50,-,-,-,-,-,-,-,-,-,-,-,-,-,-,-,-,-,-,-,-,-,-,-,-,-,-,-,-,-,-,-,-,-,-,-,-,-,-
2025-05-01 15:42:26.868,MovementStep,xxx,20,Female,-,0,Practice_EqualRatio,5,3,4,-,-,Pending,-,-,-,-,-,496.686,497.237,0.551,True,4,4.50,-0.50,3.50,-0.50,-,-,0.138,False,-,-,-,-,-,-,-,-,-,-,-,-,-,-,-,-,-,-,-,-,-,-,-,-,-,-,-,-,-,-,-,-
2025-05-01 15:42:27.556,MovementStart,xxx,20,Female,-,0,-,5,-,-,-,-,-,-,-,-,-,-,-,-,-,-,-,3.50,-0.50,-,-,-,-,-,-,-,-,-,-,-,-,-,-,-,-,-,-,-,-,-,-,-,-,-,-,-,-,-,-,-,-,-,-,-,-,-,-
2025-05-01 15:42:27.656,MovementStep,xxx,20,Female,-,0,Practice_EqualRatio,5,3,4,-,-,Pending,-,-,-,-,-,497.295,498.025,0.730,True,4,3.51,-0.50,2.51,-0.50,-,-,0.182,False,-,-,-,-,-,-,-,-,-,-,-,-,-,-,-,-,-,-,-,-,-,-,-,-,-,-,-,-,-,-,-,-
2025-05-01 15:42:28.225,MovementStart,xxx,20,Female,-,0,-,5,-,-,-,-,-,-,-,-,-,-,-,-,-,-,-,2.50,-0.50,-,-,-,-,-,-,-,-,-,-,-,-,-,-,-,-,-,-,-,-,-,-,-,-,-,-,-,-,-,-,-,-,-,-,-,-,-,-
2025-05-01 15:42:28.325,MovementStep,xxx,20,Female,-,0,Practice_EqualRatio,5,3,4,-,-,Pending,-,-,-,-,-,498.097,498.694,0.597,True,4,2.51,-0.50,1.51,-0.50,-,-,0.149,False,-,-,-,-,-,-,-,-,-,-,-,-,-,-,-,-,-,-,-,-,-,-,-,-,-,-,-,-,-,-,-,-
2025-05-01 15:42:29.950,MovementDuration,xxx,20,Female,-,-,-,5,-,-,-,-,Failure,-,-,-,-,4.485,-,-,-,-,-,-,-,-,-,-,-,-,-,-,-,-,-,-,-,-,-,-,-,-,-,-,-,-,-,-,-,-,-,-,-,-,-,-,-,-,-,-,-,-,-
2025-05-01 15:42:29.950,OutcomeType,xxx,20,Female,-,-,-,5,-,-,-,-,Failure,-,-,-,-,-,-,-,-,-,-,-,-,-,-,-,-,-,-,-,-,-,-,-,-,-,-,-,-,-,-,-,-,-,-,-,-,-,-,-,-,-,-,-,-,-,-,-,-,-,-
2025-05-01 15:42:29.951,RewardCollected,xxx,20,Female,-,-,-,5,-,-,-,-,-,-,-,-,-,-,-,-,-,-,-,-,-,-,-,-,-,-,-,-,-,-,-,-,-,-,-,-,-,-,-,-,-,-,-,-,-,-,-,-,-,-,-,-,-,-,-,-,-,-,-
2025-05-01 15:42:29.951,ButtonPresses,xxx,20,Female,-,-,-,5,-,-,-,-,-,-,-,-,-,-,-,-,-,-,-,-,-,-,-,16,0.498:left|0.726:left|1.024:left|1.191:left|1.350:left|1.512:left|1.649:left|1.802:left|1.959:left|2.249:left|2.414:left|2.589:left|2.762:left|2.925:left|3.095:left|3.259:left,-,-,-,-,-,-,-,-,-,-,-,-,-,-,-,-,-,-,-,-,-,-,-,-,-,-,-,-,-,-,-,-,-,-
2025-05-01 15:42:29.953,DecisionOutcome,xxx,20,Female,True,0,Practice_EqualRatio,5,3,4,Work,0.599,Failure,False,0,0,0,4.485,-,-,-,-,-,-,-,-,-,16,0.498:left|0.726:left|1.024:left|1.191:left|1.350:left|1.512:left|1.649:left|1.802:left|1.959:left|2.249:left|2.414:left|2.589:left|2.762:left|2.925:left|3.095:left|3.259:left,0.280,False,0.1,-,-,0.00,0.00,0,0,-,-,-,-,-,-,-,-,-,-,-,-,-,-,-,-,-,-,-,-,-,-,-,-,-
2025-05-01 15:42:29.954,ButtonPresses,xxx,20,Female,-,-,-,5,-,-,-,-,-,-,-,-,-,-,-,-,-,-,-,-,-,-,-,16,0.498:left|0.726:left|1.024:left|1.191:left|1.350:left|1.512:left|1.649:left|1.802:left|1.959:left|2.249:left|2.414:left|2.589:left|2.762:left|2.925:left|3.095:left|3.259:left,-,-,-,-,-,-,-,-,-,-,-,-,-,-,-,-,-,-,-,-,-,-,-,-,-,-,-,-,-,-,-,-,-,-
2025-05-01 15:42:29.954,MovementComplete,xxx,20,Female,-,-,-,5,-,-,-,-,-,False,-,-,-,-,-,-,-,-,-,-,-,-,-,-,-,-,-,-,-,-,-,-,-,-,-,-,-,-,-,-,-,-,-,-,-,-,-,-,-,-,-,-,-,-,-,-,-,-,-
2025-05-01 15:42:29.955,RewardCollected,xxx,20,Female,-,-,-,5,-,-,-,-,-,-,-,-,-,-,-,-,-,-,-,-,-,-,-,-,-,-,-,-,-,-,-,-,-,-,-,-,-,-,-,-,-,-,-,-,-,-,-,-,-,-,-,-,-,-,-,-,-,-,-
2025-05-01 15:42:30.107,PracticeTrialStart,xxx,20,Female,-,0,Practice_EqualRatio,6,-,-,-,-,-,-,-,-,-,-,-,-,-,-,-,-,-,-,-,-,-,-,-,-,-,-,-,-,-,-,-,-,-,-,-,-,-,-,-,-,-,-,-,-,-,-,-,-,-,-,-,-,-,-,-
2025-05-01 15:42:30.125,InfoMessage,xxx,20,Female,-,-,-,-,-,-,-,-,-,-,-,-,-,-,-,-,-,-,-,-,-,-,-,-,-,-,-,-,-,-,-,-,-,-,-,-,-,-,-,-,-,-,-,-,-,-,-,-,-,-,-,-,-,-,-,-,-,-,-
2025-05-01 15:42:37.624,CHECK_QUESTION,xxx,20,Female,-,-,-,1,-,-,-,-,-,-,-,-,-,-,-,-,-,-,-,-,-,-,-,-,-,-,-,-,-,-,-,-,-,-,-,-,-,-,-,-,-,1,1,FruitPreference,"Choose preferred fruit between Grapes(Clone) and Watermelon(Clone)",T,T,True,0.637,-,-,-,-,-,-,-,-,-,-
2025-05-01 15:42:39.159,CHECK_QUESTION,xxx,20,Female,-,-,-,2,-,-,-,-,-,-,-,-,-,-,-,-,-,-,-,-,-,-,-,-,-,-,-,-,-,-,-,-,-,-,-,-,-,-,-,-,-,1,2,FruitPreference,"Choose preferred fruit between Apple(Clone) and Watermelon(Clone)",T,T,True,1.537,-,-,-,-,-,-,-,-,-,-
2025-05-01 15:42:39.283,CHECK_QUESTION,xxx,20,Female,-,-,-,3,-,-,-,-,-,-,-,-,-,-,-,-,-,-,-,-,-,-,-,-,-,-,-,-,-,-,-,-,-,-,-,-,-,-,-,-,-,1,3,FruitPreference,"Choose preferred fruit between Watermelon(Clone) and Grapes(Clone)",T,T,True,0.124,-,-,-,-,-,-,-,-,-,-
2025-05-01 15:42:39.468,CHECK_QUESTION,xxx,20,Female,-,-,-,4,-,-,-,-,-,-,-,-,-,-,-,-,-,-,-,-,-,-,-,-,-,-,-,-,-,-,-,-,-,-,-,-,-,-,-,-,-,1,4,FruitPreference,"Choose preferred fruit between Apple(Clone) and Grapes(Clone)",T,T,True,0.185,-,-,-,-,-,-,-,-,-,-
2025-05-01 15:42:39.539,CHECK_QUESTION,xxx,20,Female,-,-,-,5,-,-,-,-,-,-,-,-,-,-,-,-,-,-,-,-,-,-,-,-,-,-,-,-,-,-,-,-,-,-,-,-,-,-,-,-,-,1,5,FruitPreference,"Choose preferred fruit between Watermelon(Clone) and Apple(Clone)",T,T,True,0.071,-,-,-,-,-,-,-,-,-,-
2025-05-01 15:42:39.941,CHECK_QUESTION,xxx,20,Female,-,-,-,6,-,-,-,-,-,-,-,-,-,-,-,-,-,-,-,-,-,-,-,-,-,-,-,-,-,-,-,-,-,-,-,-,-,-,-,-,-,1,6,FruitPreference,"Choose preferred fruit between Grapes(Clone) and Apple(Clone)",F,T,False,0.399,-,-,-,-,-,-,-,-,-,-
2025-05-01 15:42:44.473,PracticeTrialStart,xxx,20,Female,-,0,Practice_HighLowRatio,1,-,-,-,-,-,-,-,-,-,-,-,-,-,-,-,-,-,-,-,-,-,-,-,-,-,-,-,-,-,-,-,-,-,-,-,-,-,-,-,-,-,-,-,-,-,-,-,-,-,-,-,-,-,-,-
2025-05-01 15:42:44.489,InfoMessage,xxx,20,Female,-,-,-,-,-,-,-,-,-,-,-,-,-,-,-,-,-,-,-,-,-,-,-,-,-,-,-,-,-,-,-,-,-,-,-,-,-,-,-,-,-,-,-,-,-,-,-,-,-,-,-,-,-,-,-,-,-,-,-
2025-05-01 15:42:47.154,PracticeTrialStart,xxx,20,Female,True,0,-,1,-,-,-,-,-,-,-,-,-,-,-,-,-,-,-,-,-,-,-,-,-,-,-,-,-,-,-,-,-,-,-,-,-,-,-,-,-,-,-,-,-,-,-,-,-,-,-,-,-,-,-,-,-,-,-
2025-05-01 15:42:48.815,MovementStart,xxx,20,Female,-,0,-,1,-,-,-,-,-,-,-,-,-,-,-,-,-,-,-,-5.50,-2.50,-,-,-,-,-,-,-,-,-,-,-,-,-,-,-,-,-,-,-,-,-,-,-,-,-,-,-,-,-,-,-,-,-,-,-,-,-,-
2025-05-01 15:42:48.915,MovementStep,xxx,20,Female,-,0,Practice_HighLowRatio,1,3,4,-,-,Pending,-,-,-,-,-,517.711,518.294,0.583,True,4,-5.50,-2.50,-4.50,-2.50,-,-,0.146,False,-,-,-,-,-,-,-,-,-,-,-,-,-,-,-,-,-,-,-,-,-,-,-,-,-,-,-,-,-,-,-,-
2025-05-01 15:42:49.463,MovementStart,xxx,20,Female,-,0,-,1,-,-,-,-,-,-,-,-,-,-,-,-,-,-,-,-4.50,-2.50,-,-,-,-,-,-,-,-,-,-,-,-,-,-,-,-,-,-,-,-,-,-,-,-,-,-,-,-,-,-,-,-,-,-,-,-,-,-
2025-05-01 15:42:49.563,MovementStep,xxx,20,Female,-,0,Practice_HighLowRatio,1,3,4,-,-,Pending,-,-,-,-,-,518.358,518.942,0.584,True,4,-4.50,-2.50,-3.50,-2.50,-,-,0.146,False,-,-,-,-,-,-,-,-,-,-,-,-,-,-,-,-,-,-,-,-,-,-,-,-,-,-,-,-,-,-,-,-
2025-05-01 15:42:50.205,MovementStart,xxx,20,Female,-,0,-,1,-,-,-,-,-,-,-,-,-,-,-,-,-,-,-,-3.50,-2.50,-,-,-,-,-,-,-,-,-,-,-,-,-,-,-,-,-,-,-,-,-,-,-,-,-,-,-,-,-,-,-,-,-,-,-,-,-,-
2025-05-01 15:42:50.306,MovementStep,xxx,20,Female,-,0,Practice_HighLowRatio,1,3,4,-,-,Pending,-,-,-,-,-,519.028,519.684,0.656,True,4,-3.50,-2.50,-2.50,-2.50,-,-,0.164,False,-,-,-,-,-,-,-,-,-,-,-,-,-,-,-,-,-,-,-,-,-,-,-,-,-,-,-,-,-,-,-,-
2025-05-01 15:42:52.241,MovementDuration,xxx,20,Female,-,-,-,1,-,-,-,-,Failure,-,-,-,-,3.909,-,-,-,-,-,-,-,-,-,-,-,-,-,-,-,-,-,-,-,-,-,-,-,-,-,-,-,-,-,-,-,-,-,-,-,-,-,-,-,-,-,-,-,-,-
2025-05-01 15:42:52.242,OutcomeType,xxx,20,Female,-,-,-,1,-,-,-,-,Failure,-,-,-,-,-,-,-,-,-,-,-,-,-,-,-,-,-,-,-,-,-,-,-,-,-,-,-,-,-,-,-,-,-,-,-,-,-,-,-,-,-,-,-,-,-,-,-,-,-,-
2025-05-01 15:42:52.242,RewardCollected,xxx,20,Female,-,-,-,1,-,-,-,-,-,-,-,-,-,-,-,-,-,-,-,-,-,-,-,-,-,-,-,-,-,-,-,-,-,-,-,-,-,-,-,-,-,-,-,-,-,-,-,-,-,-,-,-,-,-,-,-,-,-,-
2025-05-01 15:42:52.243,ButtonPresses,xxx,20,Female,-,-,-,1,-,-,-,-,-,-,-,-,-,-,-,-,-,-,-,-,-,-,-,14,1.075:right|1.227:right|1.391:right|1.557:right|1.722:right|1.880:right|2.039:right|2.206:right|2.392:right|2.575:right|2.757:right|2.948:right|3.122:right|3.279:right,-,-,-,-,-,-,-,-,-,-,-,-,-,-,-,-,-,-,-,-,-,-,-,-,-,-,-,-,-,-,-,-,-,-
2025-05-01 15:42:52.245,DecisionOutcome,xxx,20,Female,True,0,Practice_HighLowRatio,1,3,4,Work,1.267,Failure,False,0,0,0,3.909,-,-,-,-,-,-,-,-,-,14,1.075:right|1.227:right|1.391:right|1.557:right|1.722:right|1.880:right|2.039:right|2.206:right|2.392:right|2.575:right|2.757:right|2.948:right|3.122:right|3.279:right,0.279,False,0.1,-,-,0.00,0.00,0,0,-,-,-,-,-,-,-,-,-,-,-,-,-,-,-,-,-,-,-,-,-,-,-,-,-
2025-05-01 15:42:52.245,ButtonPresses,xxx,20,Female,-,-,-,1,-,-,-,-,-,-,-,-,-,-,-,-,-,-,-,-,-,-,-,14,1.075:right|1.227:right|1.391:right|1.557:right|1.722:right|1.880:right|2.039:right|2.206:right|2.392:right|2.575:right|2.757:right|2.948:right|3.122:right|3.279:right,-,-,-,-,-,-,-,-,-,-,-,-,-,-,-,-,-,-,-,-,-,-,-,-,-,-,-,-,-,-,-,-,-,-
2025-05-01 15:42:52.245,MovementComplete,xxx,20,Female,-,-,-,1,-,-,-,-,-,False,-,-,-,-,-,-,-,-,-,-,-,-,-,-,-,-,-,-,-,-,-,-,-,-,-,-,-,-,-,-,-,-,-,-,-,-,-,-,-,-,-,-,-,-,-,-,-,-,-
2025-05-01 15:42:52.246,RewardCollected,xxx,20,Female,-,-,-,1,-,-,-,-,-,-,-,-,-,-,-,-,-,-,-,-,-,-,-,-,-,-,-,-,-,-,-,-,-,-,-,-,-,-,-,-,-,-,-,-,-,-,-,-,-,-,-,-,-,-,-,-,-,-,-
2025-05-01 15:42:52.426,PracticeTrialStart,xxx,20,Female,-,0,Practice_HighLowRatio,2,-,-,-,-,-,-,-,-,-,-,-,-,-,-,-,-,-,-,-,-,-,-,-,-,-,-,-,-,-,-,-,-,-,-,-,-,-,-,-,-,-,-,-,-,-,-,-,-,-,-,-,-,-,-,-
2025-05-01 15:42:52.454,InfoMessage,xxx,20,Female,-,-,-,-,-,-,-,-,-,-,-,-,-,-,-,-,-,-,-,-,-,-,-,-,-,-,-,-,-,-,-,-,-,-,-,-,-,-,-,-,-,-,-,-,-,-,-,-,-,-,-,-,-,-,-,-,-,-,-
2025-05-01 15:42:54.676,PracticeTrialStart,xxx,20,Female,True,0,-,2,-,-,-,-,-,-,-,-,-,-,-,-,-,-,-,-,-,-,-,-,-,-,-,-,-,-,-,-,-,-,-,-,-,-,-,-,-,-,-,-,-,-,-,-,-,-,-,-,-,-,-,-,-,-,-
2025-05-01 15:42:55.392,MovementStart,xxx,20,Female,-,0,-,2,-,-,-,-,-,-,-,-,-,-,-,-,-,-,-,-0.50,-3.50,-,-,-,-,-,-,-,-,-,-,-,-,-,-,-,-,-,-,-,-,-,-,-,-,-,-,-,-,-,-,-,-,-,-,-,-,-,-
2025-05-01 15:42:55.491,MovementStep,xxx,20,Female,-,0,Practice_HighLowRatio,2,1,1,-,-,Pending,-,-,-,-,-,524.248,524.348,0.099,True,1,-0.50,-3.50,-1.50,-3.50,-,-,0.099,True,-,-,-,-,-,-,-,-,-,-,-,-,-,-,-,-,-,-,-,-,-,-,-,-,-,-,-,-,-,-,-,-
2025-05-01 15:42:55.857,MovementStart,xxx,20,Female,-,0,-,2,-,-,-,-,-,-,-,-,-,-,-,-,-,-,-,-1.50,-3.50,-,-,-,-,-,-,-,-,-,-,-,-,-,-,-,-,-,-,-,-,-,-,-,-,-,-,-,-,-,-,-,-,-,-,-,-,-,-
2025-05-01 15:42:55.957,MovementStep,xxx,20,Female,-,0,Practice_HighLowRatio,2,1,1,-,-,Pending,-,-,-,-,-,524.714,524.814,0.100,True,1,-1.50,-3.50,-2.50,-3.50,-,-,0.100,False,-,-,-,-,-,-,-,-,-,-,-,-,-,-,-,-,-,-,-,-,-,-,-,-,-,-,-,-,-,-,-,-
2025-05-01 15:42:56.040,MovementStart,xxx,20,Female,-,0,-,2,-,-,-,-,-,-,-,-,-,-,-,-,-,-,-,-2.50,-3.50,-,-,-,-,-,-,-,-,-,-,-,-,-,-,-,-,-,-,-,-,-,-,-,-,-,-,-,-,-,-,-,-,-,-,-,-,-,-
2025-05-01 15:42:56.140,MovementStep,xxx,20,Female,-,0,Practice_HighLowRatio,2,1,1,-,-,Pending,-,-,-,-,-,524.897,524.997,0.100,True,1,-2.50,-3.50,-3.50,-3.50,-,-,0.100,False,-,-,-,-,-,-,-,-,-,-,-,-,-,-,-,-,-,-,-,-,-,-,-,-,-,-,-,-,-,-,-,-
2025-05-01 15:42:56.200,MovementStart,xxx,20,Female,-,0,-,2,-,-,-,-,-,-,-,-,-,-,-,-,-,-,-,-3.50,-3.50,-,-,-,-,-,-,-,-,-,-,-,-,-,-,-,-,-,-,-,-,-,-,-,-,-,-,-,-,-,-,-,-,-,-,-,-,-,-
2025-05-01 15:42:56.300,MovementStep,xxx,20,Female,-,0,Practice_HighLowRatio,2,1,1,-,-,Pending,-,-,-,-,-,525.056,525.157,0.100,True,1,-3.50,-3.50,-4.50,-3.50,-,-,0.100,False,-,-,-,-,-,-,-,-,-,-,-,-,-,-,-,-,-,-,-,-,-,-,-,-,-,-,-,-,-,-,-,-
2025-05-01 15:42:56.392,MovementStart,xxx,20,Female,-,0,-,2,-,-,-,-,-,-,-,-,-,-,-,-,-,-,-,-4.50,-3.50,-,-,-,-,-,-,-,-,-,-,-,-,-,-,-,-,-,-,-,-,-,-,-,-,-,-,-,-,-,-,-,-,-,-,-,-,-,-
2025-05-01 15:42:56.405,ScoreUpdate,xxx,20,Female,True,0,-,2,-,-,-,-,-,-,10,0,30,-,-,-,-,-,-,-,-,-,-,-,-,-,-,-,-,-,-,-,-,-,-,-,-,-,-,-,-,-,-,-,-,-,-,-,-,-,-,-,-,-,-,-,-,-,-
2025-05-01 15:42:56.405,CollisionTime,xxx,20,Female,True,0,-,2,-,-,-,-,-,-,-,-,-,1.012,-,-,-,-,-,-,-,-,-,-,-,-,-,-,-,-,-,-,-,-,-,-,-,-,-,-,-,-,-,-,-,-,-,-,-,-,-,-,-,-,-,-,-,-,-
2025-05-01 15:42:56.406,MovementDuration,xxx,20,Female,-,-,-,2,-,-,-,-,Success,-,-,-,-,1.012,-,-,-,-,-,-,-,-,-,-,-,-,-,-,-,-,-,-,-,-,-,-,-,-,-,-,-,-,-,-,-,-,-,-,-,-,-,-,-,-,-,-,-,-,-
2025-05-01 15:42:56.408,DecisionOutcome,xxx,20,Female,True,0,Practice_HighLowRatio,2,1,1,Work,0.782,Success,True,10,0,0,1.012,-,-,-,-,-,-,-,-,-,5,0.611:left|1.076:left|1.260:left|1.419:left|1.611:left,0.202,False,0.1,-,-,0.00,0.00,0,0,-,-,-,-,-,-,-,-,-,-,-,-,-,-,-,-,-,-,-,-,-,-,-,-,-
2025-05-01 15:42:56.408,MovementComplete,xxx,20,Female,-,-,-,2,-,-,-,-,-,True,-,-,-,-,-,-,-,-,-,-,-,-,-,-,-,-,-,-,-,-,-,-,-,-,-,-,-,-,-,-,-,-,-,-,-,-,-,-,-,-,-,-,-,-,-,-,-,-,-
2025-05-01 15:42:56.409,RewardCollected,xxx,20,Female,-,-,-,2,-,-,-,-,-,-,-,-,-,-,-,-,-,-,-,-,-,-,-,-,-,-,-,-,-,-,-,-,-,-,-,-,-,-,-,-,-,-,-,-,-,-,-,-,-,-,-,-,-,-,-,-,-,-,-
2025-05-01 15:42:56.409,OutcomeType,xxx,20,Female,-,-,-,2,-,-,-,-,Success,-,-,-,-,-,-,-,-,-,-,-,-,-,-,-,-,-,-,-,-,-,-,-,-,-,-,-,-,-,-,-,-,-,-,-,-,-,-,-,-,-,-,-,-,-,-,-,-,-,-
2025-05-01 15:42:56.409,RewardCollected,xxx,20,Female,-,-,-,2,-,-,-,-,-,-,-,-,-,-,-,-,-,-,-,-,-,-,-,-,-,-,-,-,-,-,-,-,-,-,-,-,-,-,-,-,-,-,-,-,-,-,-,-,-,-,-,-,-,-,-,-,-,-,-
2025-05-01 15:42:56.410,ButtonPresses,xxx,20,Female,-,-,-,2,-,-,-,-,-,-,-,-,-,-,-,-,-,-,-,-,-,-,-,5,0.611:left|1.076:left|1.260:left|1.419:left|1.611:left,-,-,-,-,-,-,-,-,-,-,-,-,-,-,-,-,-,-,-,-,-,-,-,-,-,-,-,-,-,-,-,-,-,-
2025-05-01 15:42:56.491,MovementStep,xxx,20,Female,-,0,Practice_HighLowRatio,2,1,1,-,-,Success,-,-,-,-,-,525.248,525.348,0.100,True,1,-4.50,-3.50,-5.50,-3.50,-,-,0.100,True,-,-,-,-,-,-,-,-,-,-,-,-,-,-,-,-,-,-,-,-,-,-,-,-,-,-,-,-,-,-,-,-
2025-05-01 15:42:59.918,PracticeTrialStart,xxx,20,Female,-,0,Practice_HighLowRatio,3,-,-,-,-,-,-,-,-,-,-,-,-,-,-,-,-,-,-,-,-,-,-,-,-,-,-,-,-,-,-,-,-,-,-,-,-,-,-,-,-,-,-,-,-,-,-,-,-,-,-,-,-,-,-,-
2025-05-01 15:42:59.934,InfoMessage,xxx,20,Female,-,-,-,-,-,-,-,-,-,-,-,-,-,-,-,-,-,-,-,-,-,-,-,-,-,-,-,-,-,-,-,-,-,-,-,-,-,-,-,-,-,-,-,-,-,-,-,-,-,-,-,-,-,-,-,-,-,-,-
2025-05-01 15:43:01.933,PracticeTrialStart,xxx,20,Female,True,0,-,3,-,-,-,-,-,-,-,-,-,-,-,-,-,-,-,-,-,-,-,-,-,-,-,-,-,-,-,-,-,-,-,-,-,-,-,-,-,-,-,-,-,-,-,-,-,-,-,-,-,-,-,-,-,-,-
2025-05-01 15:43:02.579,MovementStart,xxx,20,Female,-,0,-,3,-,-,-,-,-,-,-,-,-,-,-,-,-,-,-,3.50,-2.50,-,-,-,-,-,-,-,-,-,-,-,-,-,-,-,-,-,-,-,-,-,-,-,-,-,-,-,-,-,-,-,-,-,-,-,-,-,-
2025-05-01 15:43:02.679,MovementStep,xxx,20,Female,-,0,Practice_HighLowRatio,3,1,1,-,-,Pending,-,-,-,-,-,530.997,531.097,0.100,True,1,3.50,-2.50,2.50,-2.50,-,-,0.100,False,-,-,-,-,-,-,-,-,-,-,-,-,-,-,-,-,-,-,-,-,-,-,-,-,-,-,-,-,-,-,-,-
2025-05-01 15:43:02.778,MovementStart,xxx,20,Female,-,0,-,3,-,-,-,-,-,-,-,-,-,-,-,-,-,-,-,2.50,-2.50,-,-,-,-,-,-,-,-,-,-,-,-,-,-,-,-,-,-,-,-,-,-,-,-,-,-,-,-,-,-,-,-,-,-,-,-,-,-
2025-05-01 15:43:02.878,MovementStep,xxx,20,Female,-,0,Practice_HighLowRatio,3,1,1,-,-,Pending,-,-,-,-,-,531.196,531.296,0.100,True,1,2.50,-2.50,1.50,-2.50,-,-,0.100,False,-,-,-,-,-,-,-,-,-,-,-,-,-,-,-,-,-,-,-,-,-,-,-,-,-,-,-,-,-,-,-,-
2025-05-01 15:43:02.916,MovementStart,xxx,20,Female,-,0,-,3,-,-,-,-,-,-,-,-,-,-,-,-,-,-,-,1.50,-2.50,-,-,-,-,-,-,-,-,-,-,-,-,-,-,-,-,-,-,-,-,-,-,-,-,-,-,-,-,-,-,-,-,-,-,-,-,-,-
2025-05-01 15:43:03.016,MovementStep,xxx,20,Female,-,0,Practice_HighLowRatio,3,1,1,-,-,Pending,-,-,-,-,-,531.333,531.434,0.100,True,1,1.50,-2.50,0.50,-2.50,-,-,0.100,False,-,-,-,-,-,-,-,-,-,-,-,-,-,-,-,-,-,-,-,-,-,-,-,-,-,-,-,-,-,-,-,-
2025-05-01 15:43:03.056,MovementStart,xxx,20,Female,-,0,-,3,-,-,-,-,-,-,-,-,-,-,-,-,-,-,-,0.50,-2.50,-,-,-,-,-,-,-,-,-,-,-,-,-,-,-,-,-,-,-,-,-,-,-,-,-,-,-,-,-,-,-,-,-,-,-,-,-,-
2025-05-01 15:43:03.156,MovementStep,xxx,20,Female,-,0,Practice_HighLowRatio,3,1,1,-,-,Pending,-,-,-,-,-,531.474,531.574,0.100,True,1,0.50,-2.50,-0.50,-2.50,-,-,0.100,False,-,-,-,-,-,-,-,-,-,-,-,-,-,-,-,-,-,-,-,-,-,-,-,-,-,-,-,-,-,-,-,-
2025-05-01 15:43:03.193,MovementStart,xxx,20,Female,-,0,-,3,-,-,-,-,-,-,-,-,-,-,-,-,-,-,-,-0.50,-2.50,-,-,-,-,-,-,-,-,-,-,-,-,-,-,-,-,-,-,-,-,-,-,-,-,-,-,-,-,-,-,-,-,-,-,-,-,-,-
2025-05-01 15:43:03.224,ScoreUpdate,xxx,20,Female,True,0,-,3,-,-,-,-,-,-,10,0,40,-,-,-,-,-,-,-,-,-,-,-,-,-,-,-,-,-,-,-,-,-,-,-,-,-,-,-,-,-,-,-,-,-,-,-,-,-,-,-,-,-,-,-,-,-,-
2025-05-01 15:43:03.224,CollisionTime,xxx,20,Female,True,0,-,3,-,-,-,-,-,-,-,-,-,0.643,-,-,-,-,-,-,-,-,-,-,-,-,-,-,-,-,-,-,-,-,-,-,-,-,-,-,-,-,-,-,-,-,-,-,-,-,-,-,-,-,-,-,-,-,-
2025-05-01 15:43:03.225,MovementDuration,xxx,20,Female,-,-,-,3,-,-,-,-,Success,-,-,-,-,0.643,-,-,-,-,-,-,-,-,-,-,-,-,-,-,-,-,-,-,-,-,-,-,-,-,-,-,-,-,-,-,-,-,-,-,-,-,-,-,-,-,-,-,-,-,-
2025-05-01 15:43:03.227,DecisionOutcome,xxx,20,Female,True,0,Practice_HighLowRatio,3,1,1,Work,0.605,Success,True,10,0,0,0.643,-,-,-,-,-,-,-,-,-,5,0.536:left|0.735:left|0.873:left|1.013:left|1.150:left,0.129,False,0.1,-,-,0.00,0.00,0,0,-,-,-,-,-,-,-,-,-,-,-,-,-,-,-,-,-,-,-,-,-,-,-,-,-
2025-05-01 15:43:03.227,MovementComplete,xxx,20,Female,-,-,-,3,-,-,-,-,-,True,-,-,-,-,-,-,-,-,-,-,-,-,-,-,-,-,-,-,-,-,-,-,-,-,-,-,-,-,-,-,-,-,-,-,-,-,-,-,-,-,-,-,-,-,-,-,-,-,-
2025-05-01 15:43:03.228,RewardCollected,xxx,20,Female,-,-,-,3,-,-,-,-,-,-,-,-,-,-,-,-,-,-,-,-,-,-,-,-,-,-,-,-,-,-,-,-,-,-,-,-,-,-,-,-,-,-,-,-,-,-,-,-,-,-,-,-,-,-,-,-,-,-,-
2025-05-01 15:43:03.228,OutcomeType,xxx,20,Female,-,-,-,3,-,-,-,-,Success,-,-,-,-,-,-,-,-,-,-,-,-,-,-,-,-,-,-,-,-,-,-,-,-,-,-,-,-,-,-,-,-,-,-,-,-,-,-,-,-,-,-,-,-,-,-,-,-,-,-
2025-05-01 15:43:03.228,RewardCollected,xxx,20,Female,-,-,-,3,-,-,-,-,-,-,-,-,-,-,-,-,-,-,-,-,-,-,-,-,-,-,-,-,-,-,-,-,-,-,-,-,-,-,-,-,-,-,-,-,-,-,-,-,-,-,-,-,-,-,-,-,-,-,-
2025-05-01 15:43:03.229,ButtonPresses,xxx,20,Female,-,-,-,3,-,-,-,-,-,-,-,-,-,-,-,-,-,-,-,-,-,-,-,5,0.536:left|0.735:left|0.873:left|1.013:left|1.150:left,-,-,-,-,-,-,-,-,-,-,-,-,-,-,-,-,-,-,-,-,-,-,-,-,-,-,-,-,-,-,-,-,-,-
2025-05-01 15:43:03.293,MovementStep,xxx,20,Female,-,0,Practice_HighLowRatio,3,1,1,-,-,Success,-,-,-,-,-,531.611,531.710,0.100,True,1,-0.50,-2.50,-1.50,-2.50,-,-,0.100,True,-,-,-,-,-,-,-,-,-,-,-,-,-,-,-,-,-,-,-,-,-,-,-,-,-,-,-,-,-,-,-,-
2025-05-01 15:43:07.168,PracticeTrialStart,xxx,20,Female,-,0,Practice_HighLowRatio,4,-,-,-,-,-,-,-,-,-,-,-,-,-,-,-,-,-,-,-,-,-,-,-,-,-,-,-,-,-,-,-,-,-,-,-,-,-,-,-,-,-,-,-,-,-,-,-,-,-,-,-,-,-,-,-
2025-05-01 15:43:07.184,InfoMessage,xxx,20,Female,-,-,-,-,-,-,-,-,-,-,-,-,-,-,-,-,-,-,-,-,-,-,-,-,-,-,-,-,-,-,-,-,-,-,-,-,-,-,-,-,-,-,-,-,-,-,-,-,-,-,-,-,-,-,-,-,-,-,-
2025-05-01 15:43:09.150,PracticeTrialStart,xxx,20,Female,True,0,-,4,-,-,-,-,-,-,-,-,-,-,-,-,-,-,-,-,-,-,-,-,-,-,-,-,-,-,-,-,-,-,-,-,-,-,-,-,-,-,-,-,-,-,-,-,-,-,-,-,-,-,-,-,-,-,-
2025-05-01 15:43:10.109,MovementStart,xxx,20,Female,-,0,-,4,-,-,-,-,-,-,-,-,-,-,-,-,-,-,-,-2.50,0.50,-,-,-,-,-,-,-,-,-,-,-,-,-,-,-,-,-,-,-,-,-,-,-,-,-,-,-,-,-,-,-,-,-,-,-,-,-,-
2025-05-01 15:43:10.210,MovementStep,xxx,20,Female,-,0,Practice_HighLowRatio,4,2,3,-,-,Pending,-,-,-,-,-,537.731,538.192,0.460,True,3,-2.50,0.50,-3.50,0.50,-,-,0.153,False,-,-,-,-,-,-,-,-,-,-,-,-,-,-,-,-,-,-,-,-,-,-,-,-,-,-,-,-,-,-,-,-
2025-05-01 15:43:10.593,MovementStart,xxx,20,Female,-,0,-,4,-,-,-,-,-,-,-,-,-,-,-,-,-,-,-,-3.50,0.50,-,-,-,-,-,-,-,-,-,-,-,-,-,-,-,-,-,-,-,-,-,-,-,-,-,-,-,-,-,-,-,-,-,-,-,-,-,-
2025-05-01 15:43:10.693,MovementStep,xxx,20,Female,-,0,Practice_HighLowRatio,4,2,3,-,-,Pending,-,-,-,-,-,538.265,538.675,0.409,True,3,-3.50,0.50,-4.50,0.50,-,-,0.136,False,-,-,-,-,-,-,-,-,-,-,-,-,-,-,-,-,-,-,-,-,-,-,-,-,-,-,-,-,-,-,-,-
2025-05-01 15:43:11.045,MovementStart,xxx,20,Female,-,0,-,4,-,-,-,-,-,-,-,-,-,-,-,-,-,-,-,-4.50,0.50,-,-,-,-,-,-,-,-,-,-,-,-,-,-,-,-,-,-,-,-,-,-,-,-,-,-,-,-,-,-,-,-,-,-,-,-,-,-
2025-05-01 15:43:11.145,MovementStep,xxx,20,Female,-,0,Practice_HighLowRatio,4,2,3,-,-,Pending,-,-,-,-,-,538.733,539.127,0.394,True,3,-4.50,0.50,-5.50,0.50,-,-,0.131,False,-,-,-,-,-,-,-,-,-,-,-,-,-,-,-,-,-,-,-,-,-,-,-,-,-,-,-,-,-,-,-,-
2025-05-01 15:43:14.238,MovementDuration,xxx,20,Female,-,-,-,4,-,-,-,-,Failure,-,-,-,-,4.488,-,-,-,-,-,-,-,-,-,-,-,-,-,-,-,-,-,-,-,-,-,-,-,-,-,-,-,-,-,-,-,-,-,-,-,-,-,-,-,-,-,-,-,-,-
2025-05-01 15:43:14.238,OutcomeType,xxx,20,Female,-,-,-,4,-,-,-,-,Failure,-,-,-,-,-,-,-,-,-,-,-,-,-,-,-,-,-,-,-,-,-,-,-,-,-,-,-,-,-,-,-,-,-,-,-,-,-,-,-,-,-,-,-,-,-,-,-,-,-,-
2025-05-01 15:43:14.239,RewardCollected,xxx,20,Female,-,-,-,4,-,-,-,-,-,-,-,-,-,-,-,-,-,-,-,-,-,-,-,-,-,-,-,-,-,-,-,-,-,-,-,-,-,-,-,-,-,-,-,-,-,-,-,-,-,-,-,-,-,-,-,-,-,-,-
2025-05-01 15:43:14.239,ButtonPresses,xxx,20,Female,-,-,-,4,-,-,-,-,-,-,-,-,-,-,-,-,-,-,-,-,-,-,-,9,0.495:left|0.679:left|0.855:left|1.029:left|1.190:left|1.339:left|1.497:left|1.641:left|1.791:left,-,-,-,-,-,-,-,-,-,-,-,-,-,-,-,-,-,-,-,-,-,-,-,-,-,-,-,-,-,-,-,-,-,-
2025-05-01 15:43:14.241,DecisionOutcome,xxx,20,Female,True,0,Practice_HighLowRatio,4,2,3,Work,0.569,Failure,False,0,0,0,4.488,-,-,-,-,-,-,-,-,-,9,0.495:left|0.679:left|0.855:left|1.029:left|1.190:left|1.339:left|1.497:left|1.641:left|1.791:left,0.499,False,0.1,-,-,0.00,0.00,0,0,-,-,-,-,-,-,-,-,-,-,-,-,-,-,-,-,-,-,-,-,-,-,-,-,-
2025-05-01 15:43:14.242,ButtonPresses,xxx,20,Female,-,-,-,4,-,-,-,-,-,-,-,-,-,-,-,-,-,-,-,-,-,-,-,9,0.495:left|0.679:left|0.855:left|1.029:left|1.190:left|1.339:left|1.497:left|1.641:left|1.791:left,-,-,-,-,-,-,-,-,-,-,-,-,-,-,-,-,-,-,-,-,-,-,-,-,-,-,-,-,-,-,-,-,-,-
2025-05-01 15:43:14.242,MovementComplete,xxx,20,Female,-,-,-,4,-,-,-,-,-,False,-,-,-,-,-,-,-,-,-,-,-,-,-,-,-,-,-,-,-,-,-,-,-,-,-,-,-,-,-,-,-,-,-,-,-,-,-,-,-,-,-,-,-,-,-,-,-,-,-
2025-05-01 15:43:14.243,RewardCollected,xxx,20,Female,-,-,-,4,-,-,-,-,-,-,-,-,-,-,-,-,-,-,-,-,-,-,-,-,-,-,-,-,-,-,-,-,-,-,-,-,-,-,-,-,-,-,-,-,-,-,-,-,-,-,-,-,-,-,-,-,-,-,-
2025-05-01 15:43:14.387,PracticeTrialStart,xxx,20,Female,-,0,Practice_HighLowRatio,5,-,-,-,-,-,-,-,-,-,-,-,-,-,-,-,-,-,-,-,-,-,-,-,-,-,-,-,-,-,-,-,-,-,-,-,-,-,-,-,-,-,-,-,-,-,-,-,-,-,-,-,-,-,-,-
2025-05-01 15:43:14.403,InfoMessage,xxx,20,Female,-,-,-,-,-,-,-,-,-,-,-,-,-,-,-,-,-,-,-,-,-,-,-,-,-,-,-,-,-,-,-,-,-,-,-,-,-,-,-,-,-,-,-,-,-,-,-,-,-,-,-,-,-,-,-,-,-,-,-
2025-05-01 15:43:15.132,DecisionOutcome,xxx,20,Female,True,0,Practice_HighLowRatio,5,2,3,Skip,0.740,Skip,False,0,0,0,0.000,-,-,-,-,-,-,-,-,-,0,-,-1.000,False,0.1,Skip,3,0.00,0.00,0,0,-,-,-,-,-,-,-,-,-,-,-,-,-,-,-,-,-,-,-,-,-,-,-,-,-
2025-05-01 15:43:15.134,ScoreUpdate,xxx,20,Female,True,0,-,5,-,-,-,-,-,-,0,0,40,-,-,-,-,-,-,-,-,-,-,-,-,-,-,-,-,-,-,-,-,-,-,-,-,-,-,-,-,-,-,-,-,-,-,-,-,-,-,-,-,-,-,-,-,-,-
2025-05-01 15:43:19.144,PracticeTrialStart,xxx,20,Female,-,0,Practice_LowHighRatio,1,-,-,-,-,-,-,-,-,-,-,-,-,-,-,-,-,-,-,-,-,-,-,-,-,-,-,-,-,-,-,-,-,-,-,-,-,-,-,-,-,-,-,-,-,-,-,-,-,-,-,-,-,-,-,-
2025-05-01 15:43:19.160,InfoMessage,xxx,20,Female,-,-,-,-,-,-,-,-,-,-,-,-,-,-,-,-,-,-,-,-,-,-,-,-,-,-,-,-,-,-,-,-,-,-,-,-,-,-,-,-,-,-,-,-,-,-,-,-,-,-,-,-,-,-,-,-,-,-,-
2025-05-01 15:43:21.235,PracticeTrialStart,xxx,20,Female,True,0,-,1,-,-,-,-,-,-,-,-,-,-,-,-,-,-,-,-,-,-,-,-,-,-,-,-,-,-,-,-,-,-,-,-,-,-,-,-,-,-,-,-,-,-,-,-,-,-,-,-,-,-,-,-,-,-,-
2025-05-01 15:43:21.914,MovementStart,xxx,20,Female,-,0,-,1,-,-,-,-,-,-,-,-,-,-,-,-,-,-,-,-0.50,0.50,-,-,-,-,-,-,-,-,-,-,-,-,-,-,-,-,-,-,-,-,-,-,-,-,-,-,-,-,-,-,-,-,-,-,-,-,-,-
2025-05-01 15:43:22.014,MovementStep,xxx,20,Female,-,0,Practice_LowHighRatio,1,1,1,-,-,Pending,-,-,-,-,-,549.179,549.279,0.100,True,1,-0.50,0.50,-1.50,0.50,-,-,0.100,False,-,-,-,-,-,-,-,-,-,-,-,-,-,-,-,-,-,-,-,-,-,-,-,-,-,-,-,-,-,-,-,-
2025-05-01 15:43:22.103,MovementStart,xxx,20,Female,-,0,-,1,-,-,-,-,-,-,-,-,-,-,-,-,-,-,-,-1.50,0.50,-,-,-,-,-,-,-,-,-,-,-,-,-,-,-,-,-,-,-,-,-,-,-,-,-,-,-,-,-,-,-,-,-,-,-,-,-,-
2025-05-01 15:43:22.203,MovementStep,xxx,20,Female,-,0,Practice_LowHighRatio,1,1,1,-,-,Pending,-,-,-,-,-,549.368,549.469,0.100,True,1,-1.50,0.50,-2.50,0.50,-,-,0.100,False,-,-,-,-,-,-,-,-,-,-,-,-,-,-,-,-,-,-,-,-,-,-,-,-,-,-,-,-,-,-,-,-
2025-05-01 15:43:22.254,MovementStart,xxx,20,Female,-,0,-,1,-,-,-,-,-,-,-,-,-,-,-,-,-,-,-,-2.50,0.50,-,-,-,-,-,-,-,-,-,-,-,-,-,-,-,-,-,-,-,-,-,-,-,-,-,-,-,-,-,-,-,-,-,-,-,-,-,-
2025-05-01 15:43:22.354,MovementStep,xxx,20,Female,-,0,Practice_LowHighRatio,1,1,1,-,-,Pending,-,-,-,-,-,549.519,549.619,0.100,True,1,-2.50,0.50,-3.50,0.50,-,-,0.100,False,-,-,-,-,-,-,-,-,-,-,-,-,-,-,-,-,-,-,-,-,-,-,-,-,-,-,-,-,-,-,-,-
2025-05-01 15:43:22.408,MovementStart,xxx,20,Female,-,0,-,1,-,-,-,-,-,-,-,-,-,-,-,-,-,-,-,-3.50,0.50,-,-,-,-,-,-,-,-,-,-,-,-,-,-,-,-,-,-,-,-,-,-,-,-,-,-,-,-,-,-,-,-,-,-,-,-,-,-
2025-05-01 15:43:22.508,MovementStep,xxx,20,Female,-,0,Practice_LowHighRatio,1,1,1,-,-,Pending,-,-,-,-,-,549.673,549.773,0.100,True,1,-3.50,0.50,-4.50,0.50,-,-,0.100,True,-,-,-,-,-,-,-,-,-,-,-,-,-,-,-,-,-,-,-,-,-,-,-,-,-,-,-,-,-,-,-,-
2025-05-01 15:43:22.549,MovementStart,xxx,20,Female,-,0,-,1,-,-,-,-,-,-,-,-,-,-,-,-,-,-,-,-4.50,0.50,-,-,-,-,-,-,-,-,-,-,-,-,-,-,-,-,-,-,-,-,-,-,-,-,-,-,-,-,-,-,-,-,-,-,-,-,-,-
2025-05-01 15:43:22.575,ScoreUpdate,xxx,20,Female,True,0,-,1,-,-,-,-,-,-,10,0,50,-,-,-,-,-,-,-,-,-,-,-,-,-,-,-,-,-,-,-,-,-,-,-,-,-,-,-,-,-,-,-,-,-,-,-,-,-,-,-,-,-,-,-,-,-,-
2025-05-01 15:43:22.576,CollisionTime,xxx,20,Female,True,0,-,1,-,-,-,-,-,-,-,-,-,0.661,-,-,-,-,-,-,-,-,-,-,-,-,-,-,-,-,-,-,-,-,-,-,-,-,-,-,-,-,-,-,-,-,-,-,-,-,-,-,-,-,-,-,-,-,-
2025-05-01 15:43:22.577,MovementDuration,xxx,20,Female,-,-,-,1,-,-,-,-,Success,-,-,-,-,0.661,-,-,-,-,-,-,-,-,-,-,-,-,-,-,-,-,-,-,-,-,-,-,-,-,-,-,-,-,-,-,-,-,-,-,-,-,-,-,-,-,-,-,-,-,-
2025-05-01 15:43:22.579,DecisionOutcome,xxx,20,Female,True,0,Practice_LowHighRatio,1,1,1,Work,0.677,Success,True,10,0,0,0.661,-,-,-,-,-,-,-,-,-,5,0.576:left|0.765:left|0.916:left|1.070:left|1.211:left,0.132,False,0.1,-,-,0.00,0.00,0,0,-,-,-,-,-,-,-,-,-,-,-,-,-,-,-,-,-,-,-,-,-,-,-,-,-
2025-05-01 15:43:22.579,MovementComplete,xxx,20,Female,-,-,-,1,-,-,-,-,-,True,-,-,-,-,-,-,-,-,-,-,-,-,-,-,-,-,-,-,-,-,-,-,-,-,-,-,-,-,-,-,-,-,-,-,-,-,-,-,-,-,-,-,-,-,-,-,-,-,-
2025-05-01 15:43:22.579,RewardCollected,xxx,20,Female,-,-,-,1,-,-,-,-,-,-,-,-,-,-,-,-,-,-,-,-,-,-,-,-,-,-,-,-,-,-,-,-,-,-,-,-,-,-,-,-,-,-,-,-,-,-,-,-,-,-,-,-,-,-,-,-,-,-,-
2025-05-01 15:43:22.580,OutcomeType,xxx,20,Female,-,-,-,1,-,-,-,-,Success,-,-,-,-,-,-,-,-,-,-,-,-,-,-,-,-,-,-,-,-,-,-,-,-,-,-,-,-,-,-,-,-,-,-,-,-,-,-,-,-,-,-,-,-,-,-,-,-,-,-
2025-05-01 15:43:22.580,RewardCollected,xxx,20,Female,-,-,-,1,-,-,-,-,-,-,-,-,-,-,-,-,-,-,-,-,-,-,-,-,-,-,-,-,-,-,-,-,-,-,-,-,-,-,-,-,-,-,-,-,-,-,-,-,-,-,-,-,-,-,-,-,-,-,-
2025-05-01 15:43:22.580,ButtonPresses,xxx,20,Female,-,-,-,1,-,-,-,-,-,-,-,-,-,-,-,-,-,-,-,-,-,-,-,5,0.576:left|0.765:left|0.916:left|1.070:left|1.211:left,-,-,-,-,-,-,-,-,-,-,-,-,-,-,-,-,-,-,-,-,-,-,-,-,-,-,-,-,-,-,-,-,-,-
2025-05-01 15:43:22.650,MovementStep,xxx,20,Female,-,0,Practice_LowHighRatio,1,1,1,-,-,Success,-,-,-,-,-,549.815,549.916,0.101,True,1,-4.50,0.50,-5.50,0.50,-,-,0.101,False,-,-,-,-,-,-,-,-,-,-,-,-,-,-,-,-,-,-,-,-,-,-,-,-,-,-,-,-,-,-,-,-
2025-05-01 15:43:26.463,PracticeTrialStart,xxx,20,Female,-,0,Practice_LowHighRatio,2,-,-,-,-,-,-,-,-,-,-,-,-,-,-,-,-,-,-,-,-,-,-,-,-,-,-,-,-,-,-,-,-,-,-,-,-,-,-,-,-,-,-,-,-,-,-,-,-,-,-,-,-,-,-,-
2025-05-01 15:43:26.480,InfoMessage,xxx,20,Female,-,-,-,-,-,-,-,-,-,-,-,-,-,-,-,-,-,-,-,-,-,-,-,-,-,-,-,-,-,-,-,-,-,-,-,-,-,-,-,-,-,-,-,-,-,-,-,-,-,-,-,-,-,-,-,-,-,-,-
2025-05-01 15:43:28.652,DecisionOutcome,xxx,20,Female,True,0,Practice_LowHighRatio,2,3,4,Skip,2.184,Skip,False,0,0,0,0.000,-,-,-,-,-,-,-,-,-,0,-,-1.000,False,0.1,Skip,3,0.00,0.00,0,0,-,-,-,-,-,-,-,-,-,-,-,-,-,-,-,-,-,-,-,-,-,-,-,-,-
2025-05-01 15:43:28.653,ScoreUpdate,xxx,20,Female,True,0,-,2,-,-,-,-,-,-,0,0,50,-,-,-,-,-,-,-,-,-,-,-,-,-,-,-,-,-,-,-,-,-,-,-,-,-,-,-,-,-,-,-,-,-,-,-,-,-,-,-,-,-,-,-,-,-,-
2025-05-01 15:43:31.799,PracticeTrialStart,xxx,20,Female,-,0,Practice_LowHighRatio,3,-,-,-,-,-,-,-,-,-,-,-,-,-,-,-,-,-,-,-,-,-,-,-,-,-,-,-,-,-,-,-,-,-,-,-,-,-,-,-,-,-,-,-,-,-,-,-,-,-,-,-,-,-,-,-
2025-05-01 15:43:31.816,InfoMessage,xxx,20,Female,-,-,-,-,-,-,-,-,-,-,-,-,-,-,-,-,-,-,-,-,-,-,-,-,-,-,-,-,-,-,-,-,-,-,-,-,-,-,-,-,-,-,-,-,-,-,-,-,-,-,-,-,-,-,-,-,-,-,-
2025-05-01 15:43:35.010,PracticeTrialStart,xxx,20,Female,True,0,-,3,-,-,-,-,-,-,-,-,-,-,-,-,-,-,-,-,-,-,-,-,-,-,-,-,-,-,-,-,-,-,-,-,-,-,-,-,-,-,-,-,-,-,-,-,-,-,-,-,-,-,-,-,-,-,-
2025-05-01 15:43:35.856,MovementStart,xxx,20,Female,-,0,-,3,-,-,-,-,-,-,-,-,-,-,-,-,-,-,-,6.50,-2.50,-,-,-,-,-,-,-,-,-,-,-,-,-,-,-,-,-,-,-,-,-,-,-,-,-,-,-,-,-,-,-,-,-,-,-,-,-,-
2025-05-01 15:43:35.956,MovementStep,xxx,20,Female,-,0,Practice_LowHighRatio,3,2,3,-,-,Pending,-,-,-,-,-,562.135,562.637,0.503,True,3,6.50,-2.50,5.50,-2.50,-,-,0.168,False,-,-,-,-,-,-,-,-,-,-,-,-,-,-,-,-,-,-,-,-,-,-,-,-,-,-,-,-,-,-,-,-
2025-05-01 15:43:36.288,MovementStart,xxx,20,Female,-,0,-,3,-,-,-,-,-,-,-,-,-,-,-,-,-,-,-,5.50,-2.50,-,-,-,-,-,-,-,-,-,-,-,-,-,-,-,-,-,-,-,-,-,-,-,-,-,-,-,-,-,-,-,-,-,-,-,-,-,-
2025-05-01 15:43:36.388,MovementStep,xxx,20,Female,-,0,Practice_LowHighRatio,3,2,3,-,-,Pending,-,-,-,-,-,562.677,563.069,0.391,True,3,5.50,-2.50,4.50,-2.50,-,-,0.130,False,-,-,-,-,-,-,-,-,-,-,-,-,-,-,-,-,-,-,-,-,-,-,-,-,-,-,-,-,-,-,-,-
2025-05-01 15:43:36.732,MovementStart,xxx,20,Female,-,0,-,3,-,-,-,-,-,-,-,-,-,-,-,-,-,-,-,4.50,-2.50,-,-,-,-,-,-,-,-,-,-,-,-,-,-,-,-,-,-,-,-,-,-,-,-,-,-,-,-,-,-,-,-,-,-,-,-,-,-
2025-05-01 15:43:36.832,MovementStep,xxx,20,Female,-,0,Practice_LowHighRatio,3,2,3,-,-,Pending,-,-,-,-,-,563.121,563.514,0.393,True,3,4.50,-2.50,3.50,-2.50,-,-,0.131,False,-,-,-,-,-,-,-,-,-,-,-,-,-,-,-,-,-,-,-,-,-,-,-,-,-,-,-,-,-,-,-,-
2025-05-01 15:43:37.183,MovementStart,xxx,20,Female,-,0,-,3,-,-,-,-,-,-,-,-,-,-,-,-,-,-,-,3.50,-2.50,-,-,-,-,-,-,-,-,-,-,-,-,-,-,-,-,-,-,-,-,-,-,-,-,-,-,-,-,-,-,-,-,-,-,-,-,-,-
2025-05-01 15:43:37.284,MovementStep,xxx,20,Female,-,0,Practice_LowHighRatio,3,2,3,-,-,Pending,-,-,-,-,-,563.565,563.965,0.400,True,3,3.50,-2.50,2.50,-2.50,-,-,0.133,False,-,-,-,-,-,-,-,-,-,-,-,-,-,-,-,-,-,-,-,-,-,-,-,-,-,-,-,-,-,-,-,-
2025-05-01 15:43:37.626,MovementStart,xxx,20,Female,-,0,-,3,-,-,-,-,-,-,-,-,-,-,-,-,-,-,-,2.50,-2.50,-,-,-,-,-,-,-,-,-,-,-,-,-,-,-,-,-,-,-,-,-,-,-,-,-,-,-,-,-,-,-,-,-,-,-,-,-,-
2025-05-01 15:43:37.640,ScoreUpdate,xxx,20,Female,True,0,-,3,-,-,-,-,-,-,10,0,60,-,-,-,-,-,-,-,-,-,-,-,-,-,-,-,-,-,-,-,-,-,-,-,-,-,-,-,-,-,-,-,-,-,-,-,-,-,-,-,-,-,-,-,-,-,-
2025-05-01 15:43:37.640,CollisionTime,xxx,20,Female,True,0,-,3,-,-,-,-,-,-,-,-,-,2.185,-,-,-,-,-,-,-,-,-,-,-,-,-,-,-,-,-,-,-,-,-,-,-,-,-,-,-,-,-,-,-,-,-,-,-,-,-,-,-,-,-,-,-,-,-
2025-05-01 15:43:37.641,MovementDuration,xxx,20,Female,-,-,-,3,-,-,-,-,Success,-,-,-,-,2.185,-,-,-,-,-,-,-,-,-,-,-,-,-,-,-,-,-,-,-,-,-,-,-,-,-,-,-,-,-,-,-,-,-,-,-,-,-,-,-,-,-,-,-,-,-
2025-05-01 15:43:37.643,DecisionOutcome,xxx,20,Female,True,0,Practice_LowHighRatio,3,2,3,Work,1.788,Success,True,10,0,0,2.185,-,-,-,-,-,-,-,-,-,15,0.340:left|0.605:left|0.742:left|0.882:left|1.017:left|1.174:left|1.326:left|1.482:left|1.618:left|1.770:left|1.915:left|2.069:left|2.212:left|2.350:left|2.512:left,0.146,False,0.1,-,-,0.00,0.00,0,0,-,-,-,-,-,-,-,-,-,-,-,-,-,-,-,-,-,-,-,-,-,-,-,-,-
2025-05-01 15:43:37.643,MovementComplete,xxx,20,Female,-,-,-,3,-,-,-,-,-,True,-,-,-,-,-,-,-,-,-,-,-,-,-,-,-,-,-,-,-,-,-,-,-,-,-,-,-,-,-,-,-,-,-,-,-,-,-,-,-,-,-,-,-,-,-,-,-,-,-
2025-05-01 15:43:37.644,RewardCollected,xxx,20,Female,-,-,-,3,-,-,-,-,-,-,-,-,-,-,-,-,-,-,-,-,-,-,-,-,-,-,-,-,-,-,-,-,-,-,-,-,-,-,-,-,-,-,-,-,-,-,-,-,-,-,-,-,-,-,-,-,-,-,-
2025-05-01 15:43:37.644,OutcomeType,xxx,20,Female,-,-,-,3,-,-,-,-,Success,-,-,-,-,-,-,-,-,-,-,-,-,-,-,-,-,-,-,-,-,-,-,-,-,-,-,-,-,-,-,-,-,-,-,-,-,-,-,-,-,-,-,-,-,-,-,-,-,-,-
2025-05-01 15:43:37.644,RewardCollected,xxx,20,Female,-,-,-,3,-,-,-,-,-,-,-,-,-,-,-,-,-,-,-,-,-,-,-,-,-,-,-,-,-,-,-,-,-,-,-,-,-,-,-,-,-,-,-,-,-,-,-,-,-,-,-,-,-,-,-,-,-,-,-
2025-05-01 15:43:37.645,ButtonPresses,xxx,20,Female,-,-,-,3,-,-,-,-,-,-,-,-,-,-,-,-,-,-,-,-,-,-,-,15,0.340:left|0.605:left|0.742:left|0.882:left|1.017:left|1.174:left|1.326:left|1.482:left|1.618:left|1.770:left|1.915:left|2.069:left|2.212:left|2.350:left|2.512:left,-,-,-,-,-,-,-,-,-,-,-,-,-,-,-,-,-,-,-,-,-,-,-,-,-,-,-,-,-,-,-,-,-,-
2025-05-01 15:43:37.725,MovementStep,xxx,20,Female,-,0,Practice_LowHighRatio,3,2,3,-,-,Success,-,-,-,-,-,564.007,564.407,0.400,True,3,2.50,-2.50,1.50,-2.50,-,-,0.133,False,-,-,-,-,-,-,-,-,-,-,-,-,-,-,-,-,-,-,-,-,-,-,-,-,-,-,-,-,-,-,-,-
2025-05-01 15:43:40.248,PracticeTrialStart,xxx,20,Female,-,0,Practice_LowHighRatio,4,-,-,-,-,-,-,-,-,-,-,-,-,-,-,-,-,-,-,-,-,-,-,-,-,-,-,-,-,-,-,-,-,-,-,-,-,-,-,-,-,-,-,-,-,-,-,-,-,-,-,-,-,-,-,-
2025-05-01 15:43:40.265,InfoMessage,xxx,20,Female,-,-,-,-,-,-,-,-,-,-,-,-,-,-,-,-,-,-,-,-,-,-,-,-,-,-,-,-,-,-,-,-,-,-,-,-,-,-,-,-,-,-,-,-,-,-,-,-,-,-,-,-,-,-,-,-,-,-,-
2025-05-01 15:43:40.982,DecisionOutcome,xxx,20,Female,True,0,Practice_LowHighRatio,4,2,3,Skip,0.729,Skip,False,0,0,0,0.000,-,-,-,-,-,-,-,-,-,0,-,-1.000,False,0.1,Skip,3,0.00,0.00,0,0,-,-,-,-,-,-,-,-,-,-,-,-,-,-,-,-,-,-,-,-,-,-,-,-,-
2025-05-01 15:43:40.984,ScoreUpdate,xxx,20,Female,True,0,-,4,-,-,-,-,-,-,0,0,60,-,-,-,-,-,-,-,-,-,-,-,-,-,-,-,-,-,-,-,-,-,-,-,-,-,-,-,-,-,-,-,-,-,-,-,-,-,-,-,-,-,-,-,-,-,-
2025-05-01 15:43:44.130,PracticeTrialStart,xxx,20,Female,-,0,Practice_LowHighRatio,5,-,-,-,-,-,-,-,-,-,-,-,-,-,-,-,-,-,-,-,-,-,-,-,-,-,-,-,-,-,-,-,-,-,-,-,-,-,-,-,-,-,-,-,-,-,-,-,-,-,-,-,-,-,-,-
2025-05-01 15:43:44.146,InfoMessage,xxx,20,Female,-,-,-,-,-,-,-,-,-,-,-,-,-,-,-,-,-,-,-,-,-,-,-,-,-,-,-,-,-,-,-,-,-,-,-,-,-,-,-,-,-,-,-,-,-,-,-,-,-,-,-,-,-,-,-,-,-,-,-
2025-05-01 15:43:46.444,PracticeTrialStart,xxx,20,Female,True,0,-,5,-,-,-,-,-,-,-,-,-,-,-,-,-,-,-,-,-,-,-,-,-,-,-,-,-,-,-,-,-,-,-,-,-,-,-,-,-,-,-,-,-,-,-,-,-,-,-,-,-,-,-,-,-,-,-
2025-05-01 15:43:47.756,MovementStart,xxx,20,Female,-,0,-,5,-,-,-,-,-,-,-,-,-,-,-,-,-,-,-,1.50,-1.50,-,-,-,-,-,-,-,-,-,-,-,-,-,-,-,-,-,-,-,-,-,-,-,-,-,-,-,-,-,-,-,-,-,-,-,-,-,-
2025-05-01 15:43:47.856,MovementStep,xxx,20,Female,-,0,Practice_LowHighRatio,5,3,4,-,-,Pending,-,-,-,-,-,573.298,573.946,0.649,True,4,1.50,-1.50,2.50,-1.50,-,-,0.162,False,-,-,-,-,-,-,-,-,-,-,-,-,-,-,-,-,-,-,-,-,-,-,-,-,-,-,-,-,-,-,-,-
2025-05-01 15:43:48.413,MovementStart,xxx,20,Female,-,0,-,5,-,-,-,-,-,-,-,-,-,-,-,-,-,-,-,2.50,-1.50,-,-,-,-,-,-,-,-,-,-,-,-,-,-,-,-,-,-,-,-,-,-,-,-,-,-,-,-,-,-,-,-,-,-,-,-,-,-
2025-05-01 15:43:48.514,MovementStep,xxx,20,Female,-,0,Practice_LowHighRatio,5,3,4,-,-,Pending,-,-,-,-,-,574.022,574.604,0.582,True,4,2.50,-1.50,3.50,-1.50,-,-,0.146,False,-,-,-,-,-,-,-,-,-,-,-,-,-,-,-,-,-,-,-,-,-,-,-,-,-,-,-,-,-,-,-,-
2025-05-01 15:43:49.103,MovementStart,xxx,20,Female,-,0,-,5,-,-,-,-,-,-,-,-,-,-,-,-,-,-,-,3.50,-1.50,-,-,-,-,-,-,-,-,-,-,-,-,-,-,-,-,-,-,-,-,-,-,-,-,-,-,-,-,-,-,-,-,-,-,-,-,-,-
2025-05-01 15:43:49.204,MovementStep,xxx,20,Female,-,0,Practice_LowHighRatio,5,3,4,-,-,Pending,-,-,-,-,-,574.686,575.294,0.608,True,4,3.50,-1.50,4.50,-1.50,-,-,0.152,False,-,-,-,-,-,-,-,-,-,-,-,-,-,-,-,-,-,-,-,-,-,-,-,-,-,-,-,-,-,-,-,-
2025-05-01 15:43:51.666,MovementDuration,xxx,20,Female,-,-,-,1,-,-,-,-,Failure,-,-,-,-,4.322,-,-,-,-,-,-,-,-,-,-,-,-,-,-,-,-,-,-,-,-,-,-,-,-,-,-,-,-,-,-,-,-,-,-,-,-,-,-,-,-,-,-,-,-,-
2025-05-01 15:43:51.666,OutcomeType,xxx,20,Female,-,-,-,1,-,-,-,-,Failure,-,-,-,-,-,-,-,-,-,-,-,-,-,-,-,-,-,-,-,-,-,-,-,-,-,-,-,-,-,-,-,-,-,-,-,-,-,-,-,-,-,-,-,-,-,-,-,-,-,-
2025-05-01 15:43:51.667,RewardCollected,xxx,20,Female,-,-,-,1,-,-,-,-,-,-,-,-,-,-,-,-,-,-,-,-,-,-,-,-,-,-,-,-,-,-,-,-,-,-,-,-,-,-,-,-,-,-,-,-,-,-,-,-,-,-,-,-,-,-,-,-,-,-,-
2025-05-01 15:43:51.667,ButtonPresses,xxx,20,Female,-,-,-,1,-,-,-,-,-,-,-,-,-,-,-,-,-,-,-,-,-,-,-,13,0.661:right|0.872:right|1.042:right|1.210:right|1.385:right|1.536:right|1.693:right|1.867:right|2.049:right|2.220:right|2.383:right|2.557:right|2.729:right,-,-,-,-,-,-,-,-,-,-,-,-,-,-,-,-,-,-,-,-,-,-,-,-,-,-,-,-,-,-,-,-,-,-
2025-05-01 15:43:51.670,DecisionOutcome,xxx,20,Female,False,1,HighLowRatio,1,0,0,Work,0.000,Failure,False,0,0,0,4.322,-,-,-,-,-,-,-,-,-,13,0.661:right|0.872:right|1.042:right|1.210:right|1.385:right|1.536:right|1.693:right|1.867:right|2.049:right|2.220:right|2.383:right|2.557:right|2.729:right,0.332,False,0.1,-,-,0.00,0.00,0,0,-,-,-,-,-,-,-,-,-,-,-,-,-,-,-,-,-,-,-,-,-,-,-,-,-
2025-05-01 15:43:51.671,ButtonPresses,xxx,20,Female,-,-,-,1,-,-,-,-,-,-,-,-,-,-,-,-,-,-,-,-,-,-,-,13,0.661:right|0.872:right|1.042:right|1.210:right|1.385:right|1.536:right|1.693:right|1.867:right|2.049:right|2.220:right|2.383:right|2.557:right|2.729:right,-,-,-,-,-,-,-,-,-,-,-,-,-,-,-,-,-,-,-,-,-,-,-,-,-,-,-,-,-,-,-,-,-,-
2025-05-01 15:43:51.671,MovementComplete,xxx,20,Female,-,-,-,1,-,-,-,-,-,False,-,-,-,-,-,-,-,-,-,-,-,-,-,-,-,-,-,-,-,-,-,-,-,-,-,-,-,-,-,-,-,-,-,-,-,-,-,-,-,-,-,-,-,-,-,-,-,-,-
2025-05-01 15:43:51.672,RewardCollected,xxx,20,Female,-,-,-,1,-,-,-,-,-,-,-,-,-,-,-,-,-,-,-,-,-,-,-,-,-,-,-,-,-,-,-,-,-,-,-,-,-,-,-,-,-,-,-,-,-,-,-,-,-,-,-,-,-,-,-,-,-,-,-
2025-05-01 15:43:57.541,CHECK_QUESTION,xxx,20,Female,-,-,-,1,-,-,-,-,-,-,-,-,-,-,-,-,-,-,-,-,-,-,-,-,-,-,-,-,-,-,-,-,-,-,-,-,-,-,-,-,-,1,1,FruitPreference,"Choose preferred fruit between Apple(Clone) and Grapes(Clone)",T,T,True,2.160,-,-,-,-,-,-,-,-,-,-
2025-05-01 15:43:58.124,CHECK_QUESTION,xxx,20,Female,-,-,-,2,-,-,-,-,-,-,-,-,-,-,-,-,-,-,-,-,-,-,-,-,-,-,-,-,-,-,-,-,-,-,-,-,-,-,-,-,-,1,2,FruitPreference,"Choose preferred fruit between Watermelon(Clone) and Grapes(Clone)",T,T,True,0.585,-,-,-,-,-,-,-,-,-,-
2025-05-01 15:43:58.729,CHECK_QUESTION,xxx,20,Female,-,-,-,3,-,-,-,-,-,-,-,-,-,-,-,-,-,-,-,-,-,-,-,-,-,-,-,-,-,-,-,-,-,-,-,-,-,-,-,-,-,1,3,FruitPreference,"Choose preferred fruit between Grapes(Clone) and Watermelon(Clone)",T,T,True,0.605,-,-,-,-,-,-,-,-,-,-
2025-05-01 15:43:59.318,CHECK_QUESTION,xxx,20,Female,-,-,-,4,-,-,-,-,-,-,-,-,-,-,-,-,-,-,-,-,-,-,-,-,-,-,-,-,-,-,-,-,-,-,-,-,-,-,-,-,-,1,4,FruitPreference,"Choose preferred fruit between Apple(Clone) and Watermelon(Clone)",T,T,True,0.589,-,-,-,-,-,-,-,-,-,-
2025-05-01 15:43:59.888,CHECK_QUESTION,xxx,20,Female,-,-,-,5,-,-,-,-,-,-,-,-,-,-,-,-,-,-,-,-,-,-,-,-,-,-,-,-,-,-,-,-,-,-,-,-,-,-,-,-,-,1,5,FruitPreference,"Choose preferred fruit between Grapes(Clone) and Apple(Clone)",T,T,True,0.570,-,-,-,-,-,-,-,-,-,-
2025-05-01 15:44:00.399,CHECK_QUESTION,xxx,20,Female,-,-,-,6,-,-,-,-,-,-,-,-,-,-,-,-,-,-,-,-,-,-,-,-,-,-,-,-,-,-,-,-,-,-,-,-,-,-,-,-,-,1,6,FruitPreference,"Choose preferred fruit between Apple(Clone) and Watermelon(Clone)",T,T,True,0.511,-,-,-,-,-,-,-,-,-,-
