Timestamp,EventType,ParticipantID,ParticipantAge,ParticipantGender,IsPractice,BlockNumber,BlockType,TrialNumber,EffortLevel,RequiredPresses,DecisionType,ReactionTime,OutcomeType,RewardCollected,Points,TotalScore,PracticeScore,MovementDuration,StepStartTime,StepEndTime,StepDuration,StepSuccessful,StepPressesRequired,StartX,StartY,EndX,EndY,TotalPresses,PressData,TimePerPress,IsRushing,RushingThreshold,PenaltyType,PenaltyDuration,RemainingTime,ElapsedTime,CompletedTrials,TrialRate,CalibrationEasy,CalibrationMedium,CalibrationHard,CalibrationPhase1Rate,CalibrationPhase2Rate,CalibrationPhase3Rate,CalibrationMaxRate,CheckPhase,QuestionNumber,QuestionType,QuestionText,SelectedAnswer,CorrectAnswer,IsCorrect,ResponseTime,Check1Score,Check2Score,ComprehensionScore,TotalCheckScore,FailedAttempts,TirednessRating,ParticipantFeedback,ContinueButtonClicked,ButtonAction,RedirectURL,
2025-05-07 12:14:18.371,TrialStart,Unknown,0,Unknown,-,0,-,1,-,-,-,-,-,-,-,-,-,-,-,-,-,-,-,-,-,-,-,-,-,-,-,-,-,-,-,-,-,-,-,-,-,-,-,-,-,-,-,-,-,-,-,-,-,-,-,-,-,-,-,-,-,-,-
2025-05-07 12:14:24.781,PracticeTrialStart,Unknown,0,Unknown,True,0,-,1,-,-,-,-,-,-,-,-,-,-,-,-,-,-,-,-,-,-,-,-,-,-,-,-,-,-,-,-,-,-,-,-,-,-,-,-,-,-,-,-,-,-,-,-,-,-,-,-,-,-,-,-,-,-,-
2025-05-07 12:14:29.873,MovementDuration,Unknown,0,Unknown,-,-,-,1,-,-,-,-,Failure,-,-,-,-,0.000,-,-,-,-,-,-,-,-,-,-,-,-,-,-,-,-,-,-,-,-,-,-,-,-,-,-,-,-,-,-,-,-,-,-,-,-,-,-,-,-,-,-,-,-,-
2025-05-07 12:14:29.874,OutcomeType,Unknown,0,Unknown,-,-,-,1,-,-,-,-,Failure,-,-,-,-,-,-,-,-,-,-,-,-,-,-,-,-,-,-,-,-,-,-,-,-,-,-,-,-,-,-,-,-,-,-,-,-,-,-,-,-,-,-,-,-,-,-,-,-,-,-
2025-05-07 12:14:29.874,RewardCollected,Unknown,0,Unknown,-,-,-,1,-,-,-,-,-,-,-,-,-,-,-,-,-,-,-,-,-,-,-,-,-,-,-,-,-,-,-,-,-,-,-,-,-,-,-,-,-,-,-,-,-,-,-,-,-,-,-,-,-,-,-,-,-,-,-
2025-05-07 12:14:29.875,ButtonPresses,Unknown,0,Unknown,-,-,-,1,-,-,-,-,-,-,-,-,-,-,-,-,-,-,-,-,-,-,-,0,-,-,-,-,-,-,-,-,-,-,-,-,-,-,-,-,-,-,-,-,-,-,-,-,-,-,-,-,-,-,-,-,-,-,-
2025-05-07 12:14:29.879,DecisionOutcome,Unknown,0,Unknown,True,0,Practice_EqualRatio,1,3,5,Work,0.317,Failure,False,0,0,0,0.000,-,-,-,-,-,-,-,-,-,0,-,-1.000,False,0.1,-,-,0.00,0.00,0,0,-,-,-,-,-,-,-,-,-,-,-,-,-,-,-,-,-,-,-,-,-,-,-,-,-
2025-05-07 12:14:29.880,ButtonPresses,Unknown,0,Unknown,-,-,-,1,-,-,-,-,-,-,-,-,-,-,-,-,-,-,-,-,-,-,-,0,-,-,-,-,-,-,-,-,-,-,-,-,-,-,-,-,-,-,-,-,-,-,-,-,-,-,-,-,-,-,-,-,-,-,-
2025-05-07 12:14:29.881,MovementComplete,Unknown,0,Unknown,-,-,-,1,-,-,-,-,-,False,-,-,-,-,-,-,-,-,-,-,-,-,-,-,-,-,-,-,-,-,-,-,-,-,-,-,-,-,-,-,-,-,-,-,-,-,-,-,-,-,-,-,-,-,-,-,-,-,-
2025-05-07 12:14:29.881,RewardCollected,Unknown,0,Unknown,-,-,-,1,-,-,-,-,-,-,-,-,-,-,-,-,-,-,-,-,-,-,-,-,-,-,-,-,-,-,-,-,-,-,-,-,-,-,-,-,-,-,-,-,-,-,-,-,-,-,-,-,-,-,-,-,-,-,-
2025-05-07 12:14:32.169,InfoMessage,Unknown,0,Unknown,-,-,-,-,-,-,-,-,-,-,-,-,-,-,-,-,-,-,-,-,-,-,-,-,-,-,-,-,-,-,-,-,-,-,-,-,-,-,-,-,-,-,-,-,-,-,-,-,-,-,-,-,-,-,-,-,-,-,-
2025-05-07 12:14:34.772,PracticeTrialStart,Unknown,0,Unknown,True,0,-,2,-,-,-,-,-,-,-,-,-,-,-,-,-,-,-,-,-,-,-,-,-,-,-,-,-,-,-,-,-,-,-,-,-,-,-,-,-,-,-,-,-,-,-,-,-,-,-,-,-,-,-,-,-,-,-
2025-05-07 12:14:39.478,MovementStart,Unknown,0,Unknown,-,0,-,2,-,-,-,-,-,-,-,-,-,-,-,-,-,-,-,3.50,3.50,-,-,-,-,-,-,-,-,-,-,-,-,-,-,-,-,-,-,-,-,-,-,-,-,-,-,-,-,-,-,-,-,-,-,-,-,-,-
2025-05-07 12:14:39.578,MovementStep,Unknown,0,Unknown,-,0,Practice_EqualRatio,2,2,3,-,-,Pending,-,-,-,-,-,26.435,26.892,0.457,True,3,3.50,3.50,2.50,3.50,-,-,0.152,False,-,-,-,-,-,-,-,-,-,-,-,-,-,-,-,-,-,-,-,-,-,-,-,-,-,-,-,-,-,-,-,-
2025-05-07 12:14:39.862,MovementDuration,Unknown,0,Unknown,-,-,-,2,-,-,-,-,Failure,-,-,-,-,0.740,-,-,-,-,-,-,-,-,-,-,-,-,-,-,-,-,-,-,-,-,-,-,-,-,-,-,-,-,-,-,-,-,-,-,-,-,-,-,-,-,-,-,-,-,-
2025-05-07 12:14:39.862,OutcomeType,Unknown,0,Unknown,-,-,-,2,-,-,-,-,Failure,-,-,-,-,-,-,-,-,-,-,-,-,-,-,-,-,-,-,-,-,-,-,-,-,-,-,-,-,-,-,-,-,-,-,-,-,-,-,-,-,-,-,-,-,-,-,-,-,-,-
2025-05-07 12:14:39.863,RewardCollected,Unknown,0,Unknown,-,-,-,2,-,-,-,-,-,-,-,-,-,-,-,-,-,-,-,-,-,-,-,-,-,-,-,-,-,-,-,-,-,-,-,-,-,-,-,-,-,-,-,-,-,-,-,-,-,-,-,-,-,-,-,-,-,-,-
2025-05-07 12:14:39.863,ButtonPresses,Unknown,0,Unknown,-,-,-,2,-,-,-,-,-,-,-,-,-,-,-,-,-,-,-,-,-,-,-,5,4.234:left|4.429:left|4.591:left|4.757:left|4.917:left,-,-,-,-,-,-,-,-,-,-,-,-,-,-,-,-,-,-,-,-,-,-,-,-,-,-,-,-,-,-,-,-,-,-
2025-05-07 12:14:39.867,DecisionOutcome,Unknown,0,Unknown,True,0,Practice_EqualRatio,2,2,3,Work,0.402,Failure,False,0,0,0,0.740,-,-,-,-,-,-,-,-,-,5,4.234:left|4.429:left|4.591:left|4.757:left|4.917:left,0.148,False,0.1,-,-,0.00,0.00,0,0,-,-,-,-,-,-,-,-,-,-,-,-,-,-,-,-,-,-,-,-,-,-,-,-,-
2025-05-07 12:14:39.868,ButtonPresses,Unknown,0,Unknown,-,-,-,2,-,-,-,-,-,-,-,-,-,-,-,-,-,-,-,-,-,-,-,5,4.234:left|4.429:left|4.591:left|4.757:left|4.917:left,-,-,-,-,-,-,-,-,-,-,-,-,-,-,-,-,-,-,-,-,-,-,-,-,-,-,-,-,-,-,-,-,-,-
2025-05-07 12:14:39.868,MovementComplete,Unknown,0,Unknown,-,-,-,2,-,-,-,-,-,False,-,-,-,-,-,-,-,-,-,-,-,-,-,-,-,-,-,-,-,-,-,-,-,-,-,-,-,-,-,-,-,-,-,-,-,-,-,-,-,-,-,-,-,-,-,-,-,-,-
2025-05-07 12:14:39.869,RewardCollected,Unknown,0,Unknown,-,-,-,2,-,-,-,-,-,-,-,-,-,-,-,-,-,-,-,-,-,-,-,-,-,-,-,-,-,-,-,-,-,-,-,-,-,-,-,-,-,-,-,-,-,-,-,-,-,-,-,-,-,-,-,-,-,-,-
2025-05-07 12:14:42.083,InfoMessage,Unknown,0,Unknown,-,-,-,-,-,-,-,-,-,-,-,-,-,-,-,-,-,-,-,-,-,-,-,-,-,-,-,-,-,-,-,-,-,-,-,-,-,-,-,-,-,-,-,-,-,-,-,-,-,-,-,-,-,-,-,-,-,-,-
2025-05-07 12:14:44.655,PracticeTrialStart,Unknown,0,Unknown,True,0,-,3,-,-,-,-,-,-,-,-,-,-,-,-,-,-,-,-,-,-,-,-,-,-,-,-,-,-,-,-,-,-,-,-,-,-,-,-,-,-,-,-,-,-,-,-,-,-,-,-,-,-,-,-,-,-,-
2025-05-07 12:14:45.152,MovementStart,Unknown,0,Unknown,-,0,-,3,-,-,-,-,-,-,-,-,-,-,-,-,-,-,-,4.50,-0.50,-,-,-,-,-,-,-,-,-,-,-,-,-,-,-,-,-,-,-,-,-,-,-,-,-,-,-,-,-,-,-,-,-,-,-,-,-,-
2025-05-07 12:14:45.249,MovementStep,Unknown,0,Unknown,-,0,Practice_EqualRatio,3,1,1,-,-,Pending,-,-,-,-,-,31.863,31.960,0.098,True,1,4.50,-0.50,3.50,-0.50,-,-,0.098,True,-,-,-,-,-,-,-,-,-,-,-,-,-,-,-,-,-,-,-,-,-,-,-,-,-,-,-,-,-,-,-,-
2025-05-07 12:14:45.366,MovementStart,Unknown,0,Unknown,-,0,-,3,-,-,-,-,-,-,-,-,-,-,-,-,-,-,-,3.50,-0.50,-,-,-,-,-,-,-,-,-,-,-,-,-,-,-,-,-,-,-,-,-,-,-,-,-,-,-,-,-,-,-,-,-,-,-,-,-,-
2025-05-07 12:14:45.464,MovementStep,Unknown,0,Unknown,-,0,Practice_EqualRatio,3,1,1,-,-,Pending,-,-,-,-,-,32.077,32.175,0.098,True,1,3.50,-0.50,2.50,-0.50,-,-,0.098,True,-,-,-,-,-,-,-,-,-,-,-,-,-,-,-,-,-,-,-,-,-,-,-,-,-,-,-,-,-,-,-,-
2025-05-07 12:14:45.545,MovementStart,Unknown,0,Unknown,-,0,-,3,-,-,-,-,-,-,-,-,-,-,-,-,-,-,-,2.50,-0.50,-,-,-,-,-,-,-,-,-,-,-,-,-,-,-,-,-,-,-,-,-,-,-,-,-,-,-,-,-,-,-,-,-,-,-,-,-,-
2025-05-07 12:14:45.646,MovementStep,Unknown,0,Unknown,-,0,Practice_EqualRatio,3,1,1,-,-,Pending,-,-,-,-,-,32.257,32.357,0.100,True,1,2.50,-0.50,1.50,-0.50,-,-,0.100,False,-,-,-,-,-,-,-,-,-,-,-,-,-,-,-,-,-,-,-,-,-,-,-,-,-,-,-,-,-,-,-,-
2025-05-07 12:14:45.714,MovementStart,Unknown,0,Unknown,-,0,-,3,-,-,-,-,-,-,-,-,-,-,-,-,-,-,-,1.50,-0.50,-,-,-,-,-,-,-,-,-,-,-,-,-,-,-,-,-,-,-,-,-,-,-,-,-,-,-,-,-,-,-,-,-,-,-,-,-,-
2025-05-07 12:14:45.814,MovementStep,Unknown,0,Unknown,-,0,Practice_EqualRatio,3,1,1,-,-,Pending,-,-,-,-,-,32.426,32.525,0.100,True,1,1.50,-0.50,0.50,-0.50,-,-,0.100,True,-,-,-,-,-,-,-,-,-,-,-,-,-,-,-,-,-,-,-,-,-,-,-,-,-,-,-,-,-,-,-,-
2025-05-07 12:14:45.885,MovementStart,Unknown,0,Unknown,-,0,-,3,-,-,-,-,-,-,-,-,-,-,-,-,-,-,-,0.50,-0.50,-,-,-,-,-,-,-,-,-,-,-,-,-,-,-,-,-,-,-,-,-,-,-,-,-,-,-,-,-,-,-,-,-,-,-,-,-,-
2025-05-07 12:14:45.912,ScoreUpdate,Unknown,0,Unknown,True,0,-,3,-,-,-,-,-,-,10,0,10,-,-,-,-,-,-,-,-,-,-,-,-,-,-,-,-,-,-,-,-,-,-,-,-,-,-,-,-,-,-,-,-,-,-,-,-,-,-,-,-,-,-,-,-,-,-
2025-05-07 12:14:45.913,CollisionTime,Unknown,0,Unknown,True,0,-,3,-,-,-,-,-,-,-,-,-,0.757,-,-,-,-,-,-,-,-,-,-,-,-,-,-,-,-,-,-,-,-,-,-,-,-,-,-,-,-,-,-,-,-,-,-,-,-,-,-,-,-,-,-,-,-,-
2025-05-07 12:14:45.914,MovementDuration,Unknown,0,Unknown,-,-,-,3,-,-,-,-,Success,-,-,-,-,0.757,-,-,-,-,-,-,-,-,-,-,-,-,-,-,-,-,-,-,-,-,-,-,-,-,-,-,-,-,-,-,-,-,-,-,-,-,-,-,-,-,-,-,-,-,-
2025-05-07 12:14:45.917,DecisionOutcome,Unknown,0,Unknown,True,0,Practice_EqualRatio,3,1,1,Work,0.362,Success,True,10,0,0,0.757,-,-,-,-,-,-,-,-,-,5,0.383:left|0.597:left|0.777:left|0.946:left|1.117:left,0.151,False,0.1,-,-,0.00,0.00,0,0,-,-,-,-,-,-,-,-,-,-,-,-,-,-,-,-,-,-,-,-,-,-,-,-,-
2025-05-07 12:14:45.917,MovementComplete,Unknown,0,Unknown,-,-,-,3,-,-,-,-,-,True,-,-,-,-,-,-,-,-,-,-,-,-,-,-,-,-,-,-,-,-,-,-,-,-,-,-,-,-,-,-,-,-,-,-,-,-,-,-,-,-,-,-,-,-,-,-,-,-,-
2025-05-07 12:14:45.918,RewardCollected,Unknown,0,Unknown,-,-,-,3,-,-,-,-,-,-,-,-,-,-,-,-,-,-,-,-,-,-,-,-,-,-,-,-,-,-,-,-,-,-,-,-,-,-,-,-,-,-,-,-,-,-,-,-,-,-,-,-,-,-,-,-,-,-,-
2025-05-07 12:14:45.918,OutcomeType,Unknown,0,Unknown,-,-,-,3,-,-,-,-,Success,-,-,-,-,-,-,-,-,-,-,-,-,-,-,-,-,-,-,-,-,-,-,-,-,-,-,-,-,-,-,-,-,-,-,-,-,-,-,-,-,-,-,-,-,-,-,-,-,-,-
2025-05-07 12:14:45.919,RewardCollected,Unknown,0,Unknown,-,-,-,3,-,-,-,-,-,-,-,-,-,-,-,-,-,-,-,-,-,-,-,-,-,-,-,-,-,-,-,-,-,-,-,-,-,-,-,-,-,-,-,-,-,-,-,-,-,-,-,-,-,-,-,-,-,-,-
2025-05-07 12:14:45.919,ButtonPresses,Unknown,0,Unknown,-,-,-,3,-,-,-,-,-,-,-,-,-,-,-,-,-,-,-,-,-,-,-,5,0.383:left|0.597:left|0.777:left|0.946:left|1.117:left,-,-,-,-,-,-,-,-,-,-,-,-,-,-,-,-,-,-,-,-,-,-,-,-,-,-,-,-,-,-,-,-,-,-
2025-05-07 12:14:45.985,MovementStep,Unknown,0,Unknown,-,0,Practice_EqualRatio,3,1,1,-,-,Success,-,-,-,-,-,32.597,32.696,0.100,True,1,0.50,-0.50,-0.50,-0.50,-,-,0.100,True,-,-,-,-,-,-,-,-,-,-,-,-,-,-,-,-,-,-,-,-,-,-,-,-,-,-,-,-,-,-,-,-
2025-05-07 12:14:52.016,InfoMessage,Unknown,0,Unknown,-,-,-,-,-,-,-,-,-,-,-,-,-,-,-,-,-,-,-,-,-,-,-,-,-,-,-,-,-,-,-,-,-,-,-,-,-,-,-,-,-,-,-,-,-,-,-,-,-,-,-,-,-,-,-,-,-,-,-
2025-05-07 12:14:54.780,DecisionOutcome,Unknown,0,Unknown,True,0,Practice_EqualRatio,4,3,5,Skip,2.488,Skip,False,0,0,0,0.000,-,-,-,-,-,-,-,-,-,0,-,-1.000,False,0.1,Skip,3,0.00,0.00,0,0,-,-,-,-,-,-,-,-,-,-,-,-,-,-,-,-,-,-,-,-,-,-,-,-,-
2025-05-07 12:14:54.783,ScoreUpdate,Unknown,0,Unknown,True,0,-,4,-,-,-,-,-,-,0,0,10,-,-,-,-,-,-,-,-,-,-,-,-,-,-,-,-,-,-,-,-,-,-,-,-,-,-,-,-,-,-,-,-,-,-,-,-,-,-,-,-,-,-,-,-,-,-
2025-05-07 12:15:00.178,InfoMessage,Unknown,0,Unknown,-,-,-,-,-,-,-,-,-,-,-,-,-,-,-,-,-,-,-,-,-,-,-,-,-,-,-,-,-,-,-,-,-,-,-,-,-,-,-,-,-,-,-,-,-,-,-,-,-,-,-,-,-,-,-,-,-,-,-
2025-05-07 12:15:02.900,PracticeTrialStart,Unknown,0,Unknown,True,0,-,5,-,-,-,-,-,-,-,-,-,-,-,-,-,-,-,-,-,-,-,-,-,-,-,-,-,-,-,-,-,-,-,-,-,-,-,-,-,-,-,-,-,-,-,-,-,-,-,-,-,-,-,-,-,-,-
2025-05-07 12:15:05.395,InfoMessage,Unknown,0,Unknown,-,-,-,-,-,-,-,-,-,-,-,-,-,-,-,-,-,-,-,-,-,-,-,-,-,-,-,-,-,-,-,-,-,-,-,-,-,-,-,-,-,-,-,-,-,-,-,-,-,-,-,-,-,-,-,-,-,-,-
