Timestamp,EventType,ParticipantID,ParticipantAge,ParticipantGender,IsPractice,BlockNumber,BlockType,TrialNumber,EffortLevel,RequiredPresses,DecisionType,ReactionTime,OutcomeType,RewardCollected,Points,TotalScore,PracticeScore,MovementDuration,StepStartTime,StepEndTime,StepDuration,StepSuccessful,StepPressesRequired,StartX,StartY,EndX,EndY,TotalPresses,PressData,TimePerPress,IsRushing,RushingThreshold,PenaltyType,PenaltyDuration,RemainingTime,ElapsedTime,CompletedTrials,TrialRate,CalibrationEasy,CalibrationMedium,CalibrationHard,CalibrationPhase1Rate,CalibrationPhase2Rate,CalibrationPhase3Rate,CalibrationMaxRate,CheckPhase,QuestionNumber,QuestionType,QuestionText,SelectedAnswer,CorrectAnswer,IsCorrect,ResponseTime,Check1Score,Check2Score,ComprehensionScore,TotalCheckScore,FailedAttempts,TirednessRating,ParticipantFeedback,ContinueButtonClicked,ButtonAction,RedirectURL,
2025-05-06 16:51:37.936,TrialStart,Unknown,0,Unknown,-,0,-,1,-,-,-,-,-,-,-,-,-,-,-,-,-,-,-,-,-,-,-,-,-,-,-,-,-,-,-,-,-,-,-,-,-,-,-,-,-,-,-,-,-,-,-,-,-,-,-,-,-,-,-,-,-,-,-
2025-05-06 16:51:44.045,PracticeTrialStart,Unknown,0,Unknown,True,0,-,1,-,-,-,-,-,-,-,-,-,-,-,-,-,-,-,-,-,-,-,-,-,-,-,-,-,-,-,-,-,-,-,-,-,-,-,-,-,-,-,-,-,-,-,-,-,-,-,-,-,-,-,-,-,-,-
2025-05-06 16:51:49.147,MovementDuration,Unknown,0,Unknown,-,-,-,1,-,-,-,-,Failure,-,-,-,-,0.000,-,-,-,-,-,-,-,-,-,-,-,-,-,-,-,-,-,-,-,-,-,-,-,-,-,-,-,-,-,-,-,-,-,-,-,-,-,-,-,-,-,-,-,-,-
2025-05-06 16:51:49.148,OutcomeType,Unknown,0,Unknown,-,-,-,1,-,-,-,-,Failure,-,-,-,-,-,-,-,-,-,-,-,-,-,-,-,-,-,-,-,-,-,-,-,-,-,-,-,-,-,-,-,-,-,-,-,-,-,-,-,-,-,-,-,-,-,-,-,-,-,-
2025-05-06 16:51:49.149,RewardCollected,Unknown,0,Unknown,-,-,-,1,-,-,-,-,-,-,-,-,-,-,-,-,-,-,-,-,-,-,-,-,-,-,-,-,-,-,-,-,-,-,-,-,-,-,-,-,-,-,-,-,-,-,-,-,-,-,-,-,-,-,-,-,-,-,-
2025-05-06 16:51:49.149,ButtonPresses,Unknown,0,Unknown,-,-,-,1,-,-,-,-,-,-,-,-,-,-,-,-,-,-,-,-,-,-,-,0,-,-,-,-,-,-,-,-,-,-,-,-,-,-,-,-,-,-,-,-,-,-,-,-,-,-,-,-,-,-,-,-,-,-,-
2025-05-06 16:51:49.154,DecisionOutcome,Unknown,0,Unknown,True,0,Practice_EqualRatio,1,1,1,Work,0.498,Failure,False,0,0,0,0.000,-,-,-,-,-,-,-,-,-,0,-,-1.000,False,0.1,-,-,0.00,0.00,0,0,-,-,-,-,-,-,-,-,-,-,-,-,-,-,-,-,-,-,-,-,-,-,-,-,-
2025-05-06 16:51:49.154,ButtonPresses,Unknown,0,Unknown,-,-,-,1,-,-,-,-,-,-,-,-,-,-,-,-,-,-,-,-,-,-,-,0,-,-,-,-,-,-,-,-,-,-,-,-,-,-,-,-,-,-,-,-,-,-,-,-,-,-,-,-,-,-,-,-,-,-,-
2025-05-06 16:51:49.155,MovementComplete,Unknown,0,Unknown,-,-,-,1,-,-,-,-,-,False,-,-,-,-,-,-,-,-,-,-,-,-,-,-,-,-,-,-,-,-,-,-,-,-,-,-,-,-,-,-,-,-,-,-,-,-,-,-,-,-,-,-,-,-,-,-,-,-,-
2025-05-06 16:51:49.156,RewardCollected,Unknown,0,Unknown,-,-,-,1,-,-,-,-,-,-,-,-,-,-,-,-,-,-,-,-,-,-,-,-,-,-,-,-,-,-,-,-,-,-,-,-,-,-,-,-,-,-,-,-,-,-,-,-,-,-,-,-,-,-,-,-,-,-,-
2025-05-06 16:51:50.341,InfoMessage,Unknown,0,Unknown,-,-,-,-,-,-,-,-,-,-,-,-,-,-,-,-,-,-,-,-,-,-,-,-,-,-,-,-,-,-,-,-,-,-,-,-,-,-,-,-,-,-,-,-,-,-,-,-,-,-,-,-,-,-,-,-,-,-,-
2025-05-06 16:51:52.441,PracticeTrialStart,Unknown,0,Unknown,True,0,-,2,-,-,-,-,-,-,-,-,-,-,-,-,-,-,-,-,-,-,-,-,-,-,-,-,-,-,-,-,-,-,-,-,-,-,-,-,-,-,-,-,-,-,-,-,-,-,-,-,-,-,-,-,-,-,-
2025-05-06 16:51:57.531,MovementDuration,Unknown,0,Unknown,-,-,-,2,-,-,-,-,Failure,-,-,-,-,0.000,-,-,-,-,-,-,-,-,-,-,-,-,-,-,-,-,-,-,-,-,-,-,-,-,-,-,-,-,-,-,-,-,-,-,-,-,-,-,-,-,-,-,-,-,-
2025-05-06 16:51:57.531,OutcomeType,Unknown,0,Unknown,-,-,-,2,-,-,-,-,Failure,-,-,-,-,-,-,-,-,-,-,-,-,-,-,-,-,-,-,-,-,-,-,-,-,-,-,-,-,-,-,-,-,-,-,-,-,-,-,-,-,-,-,-,-,-,-,-,-,-,-
2025-05-06 16:51:57.531,RewardCollected,Unknown,0,Unknown,-,-,-,2,-,-,-,-,-,-,-,-,-,-,-,-,-,-,-,-,-,-,-,-,-,-,-,-,-,-,-,-,-,-,-,-,-,-,-,-,-,-,-,-,-,-,-,-,-,-,-,-,-,-,-,-,-,-,-
2025-05-06 16:51:57.532,ButtonPresses,Unknown,0,Unknown,-,-,-,2,-,-,-,-,-,-,-,-,-,-,-,-,-,-,-,-,-,-,-,0,-,-,-,-,-,-,-,-,-,-,-,-,-,-,-,-,-,-,-,-,-,-,-,-,-,-,-,-,-,-,-,-,-,-,-
2025-05-06 16:51:57.535,DecisionOutcome,Unknown,0,Unknown,True,0,Practice_EqualRatio,2,2,3,Work,0.645,Failure,False,0,0,0,0.000,-,-,-,-,-,-,-,-,-,0,-,-1.000,False,0.1,-,-,0.00,0.00,0,0,-,-,-,-,-,-,-,-,-,-,-,-,-,-,-,-,-,-,-,-,-,-,-,-,-
2025-05-06 16:51:57.535,ButtonPresses,Unknown,0,Unknown,-,-,-,2,-,-,-,-,-,-,-,-,-,-,-,-,-,-,-,-,-,-,-,0,-,-,-,-,-,-,-,-,-,-,-,-,-,-,-,-,-,-,-,-,-,-,-,-,-,-,-,-,-,-,-,-,-,-,-
2025-05-06 16:51:57.536,MovementComplete,Unknown,0,Unknown,-,-,-,2,-,-,-,-,-,False,-,-,-,-,-,-,-,-,-,-,-,-,-,-,-,-,-,-,-,-,-,-,-,-,-,-,-,-,-,-,-,-,-,-,-,-,-,-,-,-,-,-,-,-,-,-,-,-,-
2025-05-06 16:51:57.536,RewardCollected,Unknown,0,Unknown,-,-,-,2,-,-,-,-,-,-,-,-,-,-,-,-,-,-,-,-,-,-,-,-,-,-,-,-,-,-,-,-,-,-,-,-,-,-,-,-,-,-,-,-,-,-,-,-,-,-,-,-,-,-,-,-,-,-,-
2025-05-06 16:51:58.723,InfoMessage,Unknown,0,Unknown,-,-,-,-,-,-,-,-,-,-,-,-,-,-,-,-,-,-,-,-,-,-,-,-,-,-,-,-,-,-,-,-,-,-,-,-,-,-,-,-,-,-,-,-,-,-,-,-,-,-,-,-,-,-,-,-,-,-,-
2025-05-06 16:51:59.818,DecisionOutcome,Unknown,0,Unknown,True,0,Practice_EqualRatio,3,3,5,Skip,1.104,Skip,False,0,0,0,0.000,-,-,-,-,-,-,-,-,-,0,-,-1.000,False,0.1,Skip,3,0.00,0.00,0,0,-,-,-,-,-,-,-,-,-,-,-,-,-,-,-,-,-,-,-,-,-,-,-,-,-
2025-05-06 16:51:59.821,ScoreUpdate,Unknown,0,Unknown,True,0,-,3,-,-,-,-,-,-,0,0,0,-,-,-,-,-,-,-,-,-,-,-,-,-,-,-,-,-,-,-,-,-,-,-,-,-,-,-,-,-,-,-,-,-,-,-,-,-,-,-,-,-,-,-,-,-,-
2025-05-06 16:52:03.996,InfoMessage,Unknown,0,Unknown,-,-,-,-,-,-,-,-,-,-,-,-,-,-,-,-,-,-,-,-,-,-,-,-,-,-,-,-,-,-,-,-,-,-,-,-,-,-,-,-,-,-,-,-,-,-,-,-,-,-,-,-,-,-,-,-,-,-,-
2025-05-06 16:52:09.632,DecisionOutcome,Unknown,0,Unknown,True,0,Practice_EqualRatio,4,1,1,Skip,5.645,Skip,False,0,0,0,0.000,-,-,-,-,-,-,-,-,-,0,-,-1.000,False,0.1,Skip,3,0.00,0.00,0,0,-,-,-,-,-,-,-,-,-,-,-,-,-,-,-,-,-,-,-,-,-,-,-,-,-
2025-05-06 16:52:09.635,ScoreUpdate,Unknown,0,Unknown,True,0,-,4,-,-,-,-,-,-,0,0,0,-,-,-,-,-,-,-,-,-,-,-,-,-,-,-,-,-,-,-,-,-,-,-,-,-,-,-,-,-,-,-,-,-,-,-,-,-,-,-,-,-,-,-,-,-,-
2025-05-06 16:52:13.930,InfoMessage,Unknown,0,Unknown,-,-,-,-,-,-,-,-,-,-,-,-,-,-,-,-,-,-,-,-,-,-,-,-,-,-,-,-,-,-,-,-,-,-,-,-,-,-,-,-,-,-,-,-,-,-,-,-,-,-,-,-,-,-,-,-,-,-,-
2025-05-06 16:52:16.761,PracticeTrialStart,Unknown,0,Unknown,True,0,-,5,-,-,-,-,-,-,-,-,-,-,-,-,-,-,-,-,-,-,-,-,-,-,-,-,-,-,-,-,-,-,-,-,-,-,-,-,-,-,-,-,-,-,-,-,-,-,-,-,-,-,-,-,-,-,-
2025-05-06 16:52:18.261,MovementStart,Unknown,0,Unknown,-,0,-,5,-,-,-,-,-,-,-,-,-,-,-,-,-,-,-,1.50,3.50,-,-,-,-,-,-,-,-,-,-,-,-,-,-,-,-,-,-,-,-,-,-,-,-,-,-,-,-,-,-,-,-,-,-,-,-,-,-
2025-05-06 16:52:18.360,MovementStep,Unknown,0,Unknown,-,0,Practice_EqualRatio,5,2,3,-,-,Pending,-,-,-,-,-,45.724,46.240,0.517,True,3,1.50,3.50,2.50,3.50,-,-,0.172,False,-,-,-,-,-,-,-,-,-,-,-,-,-,-,-,-,-,-,-,-,-,-,-,-,-,-,-,-,-,-,-,-
2025-05-06 16:52:18.835,MovementStart,Unknown,0,Unknown,-,0,-,5,-,-,-,-,-,-,-,-,-,-,-,-,-,-,-,2.50,3.50,-,-,-,-,-,-,-,-,-,-,-,-,-,-,-,-,-,-,-,-,-,-,-,-,-,-,-,-,-,-,-,-,-,-,-,-,-,-
2025-05-06 16:52:18.935,MovementStep,Unknown,0,Unknown,-,0,Practice_EqualRatio,5,2,3,-,-,Pending,-,-,-,-,-,46.338,46.817,0.479,True,3,2.50,3.50,3.50,3.50,-,-,0.160,False,-,-,-,-,-,-,-,-,-,-,-,-,-,-,-,-,-,-,-,-,-,-,-,-,-,-,-,-,-,-,-,-
2025-05-06 16:52:19.417,MovementStart,Unknown,0,Unknown,-,0,-,5,-,-,-,-,-,-,-,-,-,-,-,-,-,-,-,3.50,3.50,-,-,-,-,-,-,-,-,-,-,-,-,-,-,-,-,-,-,-,-,-,-,-,-,-,-,-,-,-,-,-,-,-,-,-,-,-,-
2025-05-06 16:52:19.517,MovementStep,Unknown,0,Unknown,-,0,Practice_EqualRatio,5,2,3,-,-,Pending,-,-,-,-,-,46.923,47.399,0.475,True,3,3.50,3.50,4.50,3.50,-,-,0.158,False,-,-,-,-,-,-,-,-,-,-,-,-,-,-,-,-,-,-,-,-,-,-,-,-,-,-,-,-,-,-,-,-
2025-05-06 16:52:20.025,MovementStart,Unknown,0,Unknown,-,0,-,5,-,-,-,-,-,-,-,-,-,-,-,-,-,-,-,4.50,3.50,-,-,-,-,-,-,-,-,-,-,-,-,-,-,-,-,-,-,-,-,-,-,-,-,-,-,-,-,-,-,-,-,-,-,-,-,-,-
2025-05-06 16:52:20.124,MovementStep,Unknown,0,Unknown,-,0,Practice_EqualRatio,5,2,3,-,-,Pending,-,-,-,-,-,47.494,48.006,0.512,True,3,4.49,3.50,5.50,3.50,-,-,0.171,False,-,-,-,-,-,-,-,-,-,-,-,-,-,-,-,-,-,-,-,-,-,-,-,-,-,-,-,-,-,-,-,-
2025-05-06 16:52:20.675,MovementStart,Unknown,0,Unknown,-,0,-,5,-,-,-,-,-,-,-,-,-,-,-,-,-,-,-,5.50,3.50,-,-,-,-,-,-,-,-,-,-,-,-,-,-,-,-,-,-,-,-,-,-,-,-,-,-,-,-,-,-,-,-,-,-,-,-,-,-
2025-05-06 16:52:20.701,ScoreUpdate,Unknown,0,Unknown,True,0,-,5,-,-,-,-,-,-,10,0,10,-,-,-,-,-,-,-,-,-,-,-,-,-,-,-,-,-,-,-,-,-,-,-,-,-,-,-,-,-,-,-,-,-,-,-,-,-,-,-,-,-,-,-,-,-,-
2025-05-06 16:52:20.701,CollisionTime,Unknown,0,Unknown,True,0,-,5,-,-,-,-,-,-,-,-,-,2.856,-,-,-,-,-,-,-,-,-,-,-,-,-,-,-,-,-,-,-,-,-,-,-,-,-,-,-,-,-,-,-,-,-,-,-,-,-,-,-,-,-,-,-,-,-
2025-05-06 16:52:20.703,MovementDuration,Unknown,0,Unknown,-,-,-,5,-,-,-,-,Success,-,-,-,-,2.856,-,-,-,-,-,-,-,-,-,-,-,-,-,-,-,-,-,-,-,-,-,-,-,-,-,-,-,-,-,-,-,-,-,-,-,-,-,-,-,-,-,-,-,-,-
2025-05-06 16:52:20.706,DecisionOutcome,Unknown,0,Unknown,True,0,Practice_EqualRatio,5,2,3,Work,1.369,Success,True,10,0,0,2.856,-,-,-,-,-,-,-,-,-,15,0.966:right|1.196:right|1.382:right|1.580:right|1.775:right|1.958:right|2.165:right|2.358:right|2.541:right|2.736:right|2.940:right|3.148:right|3.348:right|3.566:right|3.799:right,0.190,False,0.1,-,-,0.00,0.00,0,0,-,-,-,-,-,-,-,-,-,-,-,-,-,-,-,-,-,-,-,-,-,-,-,-,-
2025-05-06 16:52:20.707,MovementComplete,Unknown,0,Unknown,-,-,-,5,-,-,-,-,-,True,-,-,-,-,-,-,-,-,-,-,-,-,-,-,-,-,-,-,-,-,-,-,-,-,-,-,-,-,-,-,-,-,-,-,-,-,-,-,-,-,-,-,-,-,-,-,-,-,-
2025-05-06 16:52:20.708,RewardCollected,Unknown,0,Unknown,-,-,-,5,-,-,-,-,-,-,-,-,-,-,-,-,-,-,-,-,-,-,-,-,-,-,-,-,-,-,-,-,-,-,-,-,-,-,-,-,-,-,-,-,-,-,-,-,-,-,-,-,-,-,-,-,-,-,-
2025-05-06 16:52:20.708,OutcomeType,Unknown,0,Unknown,-,-,-,5,-,-,-,-,Success,-,-,-,-,-,-,-,-,-,-,-,-,-,-,-,-,-,-,-,-,-,-,-,-,-,-,-,-,-,-,-,-,-,-,-,-,-,-,-,-,-,-,-,-,-,-,-,-,-,-
2025-05-06 16:52:20.708,RewardCollected,Unknown,0,Unknown,-,-,-,5,-,-,-,-,-,-,-,-,-,-,-,-,-,-,-,-,-,-,-,-,-,-,-,-,-,-,-,-,-,-,-,-,-,-,-,-,-,-,-,-,-,-,-,-,-,-,-,-,-,-,-,-,-,-,-
2025-05-06 16:52:20.709,ButtonPresses,Unknown,0,Unknown,-,-,-,5,-,-,-,-,-,-,-,-,-,-,-,-,-,-,-,-,-,-,-,15,0.966:right|1.196:right|1.382:right|1.580:right|1.775:right|1.958:right|2.165:right|2.358:right|2.541:right|2.736:right|2.940:right|3.148:right|3.348:right|3.566:right|3.799:right,-,-,-,-,-,-,-,-,-,-,-,-,-,-,-,-,-,-,-,-,-,-,-,-,-,-,-,-,-,-,-,-,-,-
2025-05-06 16:52:20.776,MovementStep,Unknown,0,Unknown,-,0,Practice_EqualRatio,5,2,3,-,-,Success,-,-,-,-,-,48.106,48.658,0.552,True,3,5.50,3.50,6.50,3.50,-,-,0.184,False,-,-,-,-,-,-,-,-,-,-,-,-,-,-,-,-,-,-,-,-,-,-,-,-,-,-,-,-,-,-,-,-
2025-05-06 16:52:23.049,InfoMessage,Unknown,0,Unknown,-,-,-,-,-,-,-,-,-,-,-,-,-,-,-,-,-,-,-,-,-,-,-,-,-,-,-,-,-,-,-,-,-,-,-,-,-,-,-,-,-,-,-,-,-,-,-,-,-,-,-,-,-,-,-,-,-,-,-
2025-05-06 16:52:25.212,PracticeTrialStart,Unknown,0,Unknown,True,0,-,6,-,-,-,-,-,-,-,-,-,-,-,-,-,-,-,-,-,-,-,-,-,-,-,-,-,-,-,-,-,-,-,-,-,-,-,-,-,-,-,-,-,-,-,-,-,-,-,-,-,-,-,-,-,-,-
2025-05-06 16:52:30.301,MovementDuration,Unknown,0,Unknown,-,-,-,6,-,-,-,-,Failure,-,-,-,-,0.000,-,-,-,-,-,-,-,-,-,-,-,-,-,-,-,-,-,-,-,-,-,-,-,-,-,-,-,-,-,-,-,-,-,-,-,-,-,-,-,-,-,-,-,-,-
2025-05-06 16:52:30.302,OutcomeType,Unknown,0,Unknown,-,-,-,6,-,-,-,-,Failure,-,-,-,-,-,-,-,-,-,-,-,-,-,-,-,-,-,-,-,-,-,-,-,-,-,-,-,-,-,-,-,-,-,-,-,-,-,-,-,-,-,-,-,-,-,-,-,-,-,-
2025-05-06 16:52:30.302,RewardCollected,Unknown,0,Unknown,-,-,-,6,-,-,-,-,-,-,-,-,-,-,-,-,-,-,-,-,-,-,-,-,-,-,-,-,-,-,-,-,-,-,-,-,-,-,-,-,-,-,-,-,-,-,-,-,-,-,-,-,-,-,-,-,-,-,-
2025-05-06 16:52:30.303,ButtonPresses,Unknown,0,Unknown,-,-,-,6,-,-,-,-,-,-,-,-,-,-,-,-,-,-,-,-,-,-,-,0,-,-,-,-,-,-,-,-,-,-,-,-,-,-,-,-,-,-,-,-,-,-,-,-,-,-,-,-,-,-,-,-,-,-,-
2025-05-06 16:52:30.306,DecisionOutcome,Unknown,0,Unknown,True,0,Practice_EqualRatio,6,3,5,Work,0.707,Failure,False,0,0,0,0.000,-,-,-,-,-,-,-,-,-,0,-,-1.000,False,0.1,-,-,0.00,0.00,0,0,-,-,-,-,-,-,-,-,-,-,-,-,-,-,-,-,-,-,-,-,-,-,-,-,-
2025-05-06 16:52:30.307,ButtonPresses,Unknown,0,Unknown,-,-,-,6,-,-,-,-,-,-,-,-,-,-,-,-,-,-,-,-,-,-,-,0,-,-,-,-,-,-,-,-,-,-,-,-,-,-,-,-,-,-,-,-,-,-,-,-,-,-,-,-,-,-,-,-,-,-,-
2025-05-06 16:52:30.307,MovementComplete,Unknown,0,Unknown,-,-,-,6,-,-,-,-,-,False,-,-,-,-,-,-,-,-,-,-,-,-,-,-,-,-,-,-,-,-,-,-,-,-,-,-,-,-,-,-,-,-,-,-,-,-,-,-,-,-,-,-,-,-,-,-,-,-,-
2025-05-06 16:52:30.308,RewardCollected,Unknown,0,Unknown,-,-,-,6,-,-,-,-,-,-,-,-,-,-,-,-,-,-,-,-,-,-,-,-,-,-,-,-,-,-,-,-,-,-,-,-,-,-,-,-,-,-,-,-,-,-,-,-,-,-,-,-,-,-,-,-,-,-,-
2025-05-06 16:52:31.484,InfoMessage,Unknown,0,Unknown,-,-,-,-,-,-,-,-,-,-,-,-,-,-,-,-,-,-,-,-,-,-,-,-,-,-,-,-,-,-,-,-,-,-,-,-,-,-,-,-,-,-,-,-,-,-,-,-,-,-,-,-,-,-,-,-,-,-,-
2025-05-06 16:52:39.799,PracticeTrialStart,Unknown,0,Unknown,True,0,-,7,-,-,-,-,-,-,-,-,-,-,-,-,-,-,-,-,-,-,-,-,-,-,-,-,-,-,-,-,-,-,-,-,-,-,-,-,-,-,-,-,-,-,-,-,-,-,-,-,-,-,-,-,-,-,-
2025-05-06 16:52:44.887,MovementDuration,Unknown,0,Unknown,-,-,-,7,-,-,-,-,Failure,-,-,-,-,0.000,-,-,-,-,-,-,-,-,-,-,-,-,-,-,-,-,-,-,-,-,-,-,-,-,-,-,-,-,-,-,-,-,-,-,-,-,-,-,-,-,-,-,-,-,-
2025-05-06 16:52:44.888,OutcomeType,Unknown,0,Unknown,-,-,-,7,-,-,-,-,Failure,-,-,-,-,-,-,-,-,-,-,-,-,-,-,-,-,-,-,-,-,-,-,-,-,-,-,-,-,-,-,-,-,-,-,-,-,-,-,-,-,-,-,-,-,-,-,-,-,-,-
2025-05-06 16:52:44.888,RewardCollected,Unknown,0,Unknown,-,-,-,7,-,-,-,-,-,-,-,-,-,-,-,-,-,-,-,-,-,-,-,-,-,-,-,-,-,-,-,-,-,-,-,-,-,-,-,-,-,-,-,-,-,-,-,-,-,-,-,-,-,-,-,-,-,-,-
2025-05-06 16:52:44.889,ButtonPresses,Unknown,0,Unknown,-,-,-,7,-,-,-,-,-,-,-,-,-,-,-,-,-,-,-,-,-,-,-,0,-,-,-,-,-,-,-,-,-,-,-,-,-,-,-,-,-,-,-,-,-,-,-,-,-,-,-,-,-,-,-,-,-,-,-
2025-05-06 16:52:44.893,DecisionOutcome,Unknown,0,Unknown,True,0,Practice_EqualRatio,7,1,1,Work,6.877,Failure,False,0,0,0,0.000,-,-,-,-,-,-,-,-,-,0,-,-1.000,False,0.1,-,-,0.00,0.00,0,0,-,-,-,-,-,-,-,-,-,-,-,-,-,-,-,-,-,-,-,-,-,-,-,-,-
2025-05-06 16:52:44.893,ButtonPresses,Unknown,0,Unknown,-,-,-,7,-,-,-,-,-,-,-,-,-,-,-,-,-,-,-,-,-,-,-,0,-,-,-,-,-,-,-,-,-,-,-,-,-,-,-,-,-,-,-,-,-,-,-,-,-,-,-,-,-,-,-,-,-,-,-
2025-05-06 16:52:44.894,MovementComplete,Unknown,0,Unknown,-,-,-,7,-,-,-,-,-,False,-,-,-,-,-,-,-,-,-,-,-,-,-,-,-,-,-,-,-,-,-,-,-,-,-,-,-,-,-,-,-,-,-,-,-,-,-,-,-,-,-,-,-,-,-,-,-,-,-
2025-05-06 16:52:44.895,RewardCollected,Unknown,0,Unknown,-,-,-,7,-,-,-,-,-,-,-,-,-,-,-,-,-,-,-,-,-,-,-,-,-,-,-,-,-,-,-,-,-,-,-,-,-,-,-,-,-,-,-,-,-,-,-,-,-,-,-,-,-,-,-,-,-,-,-
2025-05-06 16:52:46.078,InfoMessage,Unknown,0,Unknown,-,-,-,-,-,-,-,-,-,-,-,-,-,-,-,-,-,-,-,-,-,-,-,-,-,-,-,-,-,-,-,-,-,-,-,-,-,-,-,-,-,-,-,-,-,-,-,-,-,-,-,-,-,-,-,-,-,-,-
2025-05-06 16:53:03.167,PracticeTrialStart,Unknown,0,Unknown,True,0,-,8,-,-,-,-,-,-,-,-,-,-,-,-,-,-,-,-,-,-,-,-,-,-,-,-,-,-,-,-,-,-,-,-,-,-,-,-,-,-,-,-,-,-,-,-,-,-,-,-,-,-,-,-,-,-,-
2025-05-06 16:53:08.255,MovementDuration,Unknown,0,Unknown,-,-,-,8,-,-,-,-,Failure,-,-,-,-,0.000,-,-,-,-,-,-,-,-,-,-,-,-,-,-,-,-,-,-,-,-,-,-,-,-,-,-,-,-,-,-,-,-,-,-,-,-,-,-,-,-,-,-,-,-,-
2025-05-06 16:53:08.256,OutcomeType,Unknown,0,Unknown,-,-,-,8,-,-,-,-,Failure,-,-,-,-,-,-,-,-,-,-,-,-,-,-,-,-,-,-,-,-,-,-,-,-,-,-,-,-,-,-,-,-,-,-,-,-,-,-,-,-,-,-,-,-,-,-,-,-,-,-
2025-05-06 16:53:08.256,RewardCollected,Unknown,0,Unknown,-,-,-,8,-,-,-,-,-,-,-,-,-,-,-,-,-,-,-,-,-,-,-,-,-,-,-,-,-,-,-,-,-,-,-,-,-,-,-,-,-,-,-,-,-,-,-,-,-,-,-,-,-,-,-,-,-,-,-
2025-05-06 16:53:08.256,ButtonPresses,Unknown,0,Unknown,-,-,-,8,-,-,-,-,-,-,-,-,-,-,-,-,-,-,-,-,-,-,-,0,-,-,-,-,-,-,-,-,-,-,-,-,-,-,-,-,-,-,-,-,-,-,-,-,-,-,-,-,-,-,-,-,-,-,-
2025-05-06 16:53:08.259,DecisionOutcome,Unknown,0,Unknown,True,0,Practice_EqualRatio,8,2,3,Work,15.683,Failure,False,0,0,0,0.000,-,-,-,-,-,-,-,-,-,0,-,-1.000,False,0.1,-,-,0.00,0.00,0,0,-,-,-,-,-,-,-,-,-,-,-,-,-,-,-,-,-,-,-,-,-,-,-,-,-
2025-05-06 16:53:08.260,ButtonPresses,Unknown,0,Unknown,-,-,-,8,-,-,-,-,-,-,-,-,-,-,-,-,-,-,-,-,-,-,-,0,-,-,-,-,-,-,-,-,-,-,-,-,-,-,-,-,-,-,-,-,-,-,-,-,-,-,-,-,-,-,-,-,-,-,-
2025-05-06 16:53:08.260,MovementComplete,Unknown,0,Unknown,-,-,-,8,-,-,-,-,-,False,-,-,-,-,-,-,-,-,-,-,-,-,-,-,-,-,-,-,-,-,-,-,-,-,-,-,-,-,-,-,-,-,-,-,-,-,-,-,-,-,-,-,-,-,-,-,-,-,-
2025-05-06 16:53:08.260,RewardCollected,Unknown,0,Unknown,-,-,-,8,-,-,-,-,-,-,-,-,-,-,-,-,-,-,-,-,-,-,-,-,-,-,-,-,-,-,-,-,-,-,-,-,-,-,-,-,-,-,-,-,-,-,-,-,-,-,-,-,-,-,-,-,-,-,-
2025-05-06 16:53:09.443,InfoMessage,Unknown,0,Unknown,-,-,-,-,-,-,-,-,-,-,-,-,-,-,-,-,-,-,-,-,-,-,-,-,-,-,-,-,-,-,-,-,-,-,-,-,-,-,-,-,-,-,-,-,-,-,-,-,-,-,-,-,-,-,-,-,-,-,-
2025-05-06 16:53:17.565,PracticeTrialStart,Unknown,0,Unknown,True,0,-,9,-,-,-,-,-,-,-,-,-,-,-,-,-,-,-,-,-,-,-,-,-,-,-,-,-,-,-,-,-,-,-,-,-,-,-,-,-,-,-,-,-,-,-,-,-,-,-,-,-,-,-,-,-,-,-
2025-05-06 16:53:22.653,MovementDuration,Unknown,0,Unknown,-,-,-,9,-,-,-,-,Failure,-,-,-,-,0.000,-,-,-,-,-,-,-,-,-,-,-,-,-,-,-,-,-,-,-,-,-,-,-,-,-,-,-,-,-,-,-,-,-,-,-,-,-,-,-,-,-,-,-,-,-
2025-05-06 16:53:22.654,OutcomeType,Unknown,0,Unknown,-,-,-,9,-,-,-,-,Failure,-,-,-,-,-,-,-,-,-,-,-,-,-,-,-,-,-,-,-,-,-,-,-,-,-,-,-,-,-,-,-,-,-,-,-,-,-,-,-,-,-,-,-,-,-,-,-,-,-,-
2025-05-06 16:53:22.654,RewardCollected,Unknown,0,Unknown,-,-,-,9,-,-,-,-,-,-,-,-,-,-,-,-,-,-,-,-,-,-,-,-,-,-,-,-,-,-,-,-,-,-,-,-,-,-,-,-,-,-,-,-,-,-,-,-,-,-,-,-,-,-,-,-,-,-,-
2025-05-06 16:53:22.655,ButtonPresses,Unknown,0,Unknown,-,-,-,9,-,-,-,-,-,-,-,-,-,-,-,-,-,-,-,-,-,-,-,0,-,-,-,-,-,-,-,-,-,-,-,-,-,-,-,-,-,-,-,-,-,-,-,-,-,-,-,-,-,-,-,-,-,-,-
2025-05-06 16:53:22.657,DecisionOutcome,Unknown,0,Unknown,True,0,Practice_EqualRatio,9,3,5,Work,6.608,Failure,False,0,0,0,0.000,-,-,-,-,-,-,-,-,-,0,-,-1.000,False,0.1,-,-,0.00,0.00,0,0,-,-,-,-,-,-,-,-,-,-,-,-,-,-,-,-,-,-,-,-,-,-,-,-,-
2025-05-06 16:53:22.658,ButtonPresses,Unknown,0,Unknown,-,-,-,9,-,-,-,-,-,-,-,-,-,-,-,-,-,-,-,-,-,-,-,0,-,-,-,-,-,-,-,-,-,-,-,-,-,-,-,-,-,-,-,-,-,-,-,-,-,-,-,-,-,-,-,-,-,-,-
2025-05-06 16:53:22.658,MovementComplete,Unknown,0,Unknown,-,-,-,9,-,-,-,-,-,False,-,-,-,-,-,-,-,-,-,-,-,-,-,-,-,-,-,-,-,-,-,-,-,-,-,-,-,-,-,-,-,-,-,-,-,-,-,-,-,-,-,-,-,-,-,-,-,-,-
2025-05-06 16:53:22.659,RewardCollected,Unknown,0,Unknown,-,-,-,9,-,-,-,-,-,-,-,-,-,-,-,-,-,-,-,-,-,-,-,-,-,-,-,-,-,-,-,-,-,-,-,-,-,-,-,-,-,-,-,-,-,-,-,-,-,-,-,-,-,-,-,-,-,-,-
2025-05-06 16:53:23.835,InfoMessage,Unknown,0,Unknown,-,-,-,-,-,-,-,-,-,-,-,-,-,-,-,-,-,-,-,-,-,-,-,-,-,-,-,-,-,-,-,-,-,-,-,-,-,-,-,-,-,-,-,-,-,-,-,-,-,-,-,-,-,-,-,-,-,-,-
2025-05-06 16:53:24.421,DecisionOutcome,Unknown,0,Unknown,True,0,Practice_EqualRatio,10,1,1,Skip,0.595,Skip,False,0,0,0,0.000,-,-,-,-,-,-,-,-,-,0,-,-1.000,False,0.1,Skip,3,0.00,0.00,0,0,-,-,-,-,-,-,-,-,-,-,-,-,-,-,-,-,-,-,-,-,-,-,-,-,-
2025-05-06 16:53:24.422,ScoreUpdate,Unknown,0,Unknown,True,0,-,10,-,-,-,-,-,-,0,0,10,-,-,-,-,-,-,-,-,-,-,-,-,-,-,-,-,-,-,-,-,-,-,-,-,-,-,-,-,-,-,-,-,-,-,-,-,-,-,-,-,-,-,-,-,-,-
2025-05-06 16:53:28.580,InfoMessage,Unknown,0,Unknown,-,-,-,-,-,-,-,-,-,-,-,-,-,-,-,-,-,-,-,-,-,-,-,-,-,-,-,-,-,-,-,-,-,-,-,-,-,-,-,-,-,-,-,-,-,-,-,-,-,-,-,-,-,-,-,-,-,-,-
2025-05-06 16:53:31.324,PracticeTrialStart,Unknown,0,Unknown,True,0,-,11,-,-,-,-,-,-,-,-,-,-,-,-,-,-,-,-,-,-,-,-,-,-,-,-,-,-,-,-,-,-,-,-,-,-,-,-,-,-,-,-,-,-,-,-,-,-,-,-,-,-,-,-,-,-,-
2025-05-06 16:53:33.917,MovementStart,Unknown,0,Unknown,-,0,-,11,-,-,-,-,-,-,-,-,-,-,-,-,-,-,-,-2.50,-2.50,-,-,-,-,-,-,-,-,-,-,-,-,-,-,-,-,-,-,-,-,-,-,-,-,-,-,-,-,-,-,-,-,-,-,-,-,-,-
2025-05-06 16:53:34.018,MovementStep,Unknown,0,Unknown,-,0,Practice_EqualRatio,11,2,3,-,-,Pending,-,-,-,-,-,118.760,119.267,0.506,True,3,-2.50,-2.50,-3.50,-2.50,-,-,0.169,False,-,-,-,-,-,-,-,-,-,-,-,-,-,-,-,-,-,-,-,-,-,-,-,-,-,-,-,-,-,-,-,-
2025-05-06 16:53:34.436,MovementStart,Unknown,0,Unknown,-,0,-,11,-,-,-,-,-,-,-,-,-,-,-,-,-,-,-,-3.50,-2.50,-,-,-,-,-,-,-,-,-,-,-,-,-,-,-,-,-,-,-,-,-,-,-,-,-,-,-,-,-,-,-,-,-,-,-,-,-,-
2025-05-06 16:53:34.536,MovementStep,Unknown,0,Unknown,-,0,Practice_EqualRatio,11,2,3,-,-,Pending,-,-,-,-,-,119.335,119.785,0.450,True,3,-3.50,-2.50,-4.50,-2.50,-,-,0.150,False,-,-,-,-,-,-,-,-,-,-,-,-,-,-,-,-,-,-,-,-,-,-,-,-,-,-,-,-,-,-,-,-
2025-05-06 16:53:35.022,MovementStart,Unknown,0,Unknown,-,0,-,11,-,-,-,-,-,-,-,-,-,-,-,-,-,-,-,-4.50,-2.50,-,-,-,-,-,-,-,-,-,-,-,-,-,-,-,-,-,-,-,-,-,-,-,-,-,-,-,-,-,-,-,-,-,-,-,-,-,-
2025-05-06 16:53:35.122,MovementStep,Unknown,0,Unknown,-,0,Practice_EqualRatio,11,2,3,-,-,Pending,-,-,-,-,-,119.860,120.371,0.510,True,3,-4.50,-2.50,-5.50,-2.50,-,-,0.170,False,-,-,-,-,-,-,-,-,-,-,-,-,-,-,-,-,-,-,-,-,-,-,-,-,-,-,-,-,-,-,-,-
2025-05-06 16:53:35.645,MovementStart,Unknown,0,Unknown,-,0,-,11,-,-,-,-,-,-,-,-,-,-,-,-,-,-,-,-5.50,-2.50,-,-,-,-,-,-,-,-,-,-,-,-,-,-,-,-,-,-,-,-,-,-,-,-,-,-,-,-,-,-,-,-,-,-,-,-,-,-
2025-05-06 16:53:35.746,MovementStep,Unknown,0,Unknown,-,0,Practice_EqualRatio,11,2,3,-,-,Pending,-,-,-,-,-,120.483,120.995,0.512,True,3,-5.50,-2.50,-6.50,-2.50,-,-,0.171,False,-,-,-,-,-,-,-,-,-,-,-,-,-,-,-,-,-,-,-,-,-,-,-,-,-,-,-,-,-,-,-,-
2025-05-06 16:53:36.252,MovementStart,Unknown,0,Unknown,-,0,-,11,-,-,-,-,-,-,-,-,-,-,-,-,-,-,-,-6.50,-2.50,-,-,-,-,-,-,-,-,-,-,-,-,-,-,-,-,-,-,-,-,-,-,-,-,-,-,-,-,-,-,-,-,-,-,-,-,-,-
2025-05-06 16:53:36.273,ScoreUpdate,Unknown,0,Unknown,True,0,-,11,-,-,-,-,-,-,10,0,20,-,-,-,-,-,-,-,-,-,-,-,-,-,-,-,-,-,-,-,-,-,-,-,-,-,-,-,-,-,-,-,-,-,-,-,-,-,-,-,-,-,-,-,-,-,-
2025-05-06 16:53:36.274,CollisionTime,Unknown,0,Unknown,True,0,-,11,-,-,-,-,-,-,-,-,-,2.760,-,-,-,-,-,-,-,-,-,-,-,-,-,-,-,-,-,-,-,-,-,-,-,-,-,-,-,-,-,-,-,-,-,-,-,-,-,-,-,-,-,-,-,-,-
2025-05-06 16:53:36.275,MovementDuration,Unknown,0,Unknown,-,-,-,11,-,-,-,-,Success,-,-,-,-,2.760,-,-,-,-,-,-,-,-,-,-,-,-,-,-,-,-,-,-,-,-,-,-,-,-,-,-,-,-,-,-,-,-,-,-,-,-,-,-,-,-,-,-,-,-,-
2025-05-06 16:53:36.277,DecisionOutcome,Unknown,0,Unknown,True,0,Practice_EqualRatio,11,2,3,Work,1.344,Success,True,10,0,0,2.760,-,-,-,-,-,-,-,-,-,15,2.081:left|2.317:left|2.486:left|2.655:left|2.831:left|3.005:left|3.181:left|3.377:left|3.591:left|3.803:left|4.015:left|4.214:left|4.414:left|4.620:left|4.821:left,0.184,False,0.1,-,-,0.00,0.00,0,0,-,-,-,-,-,-,-,-,-,-,-,-,-,-,-,-,-,-,-,-,-,-,-,-,-
2025-05-06 16:53:36.277,MovementComplete,Unknown,0,Unknown,-,-,-,11,-,-,-,-,-,True,-,-,-,-,-,-,-,-,-,-,-,-,-,-,-,-,-,-,-,-,-,-,-,-,-,-,-,-,-,-,-,-,-,-,-,-,-,-,-,-,-,-,-,-,-,-,-,-,-
2025-05-06 16:53:36.278,RewardCollected,Unknown,0,Unknown,-,-,-,11,-,-,-,-,-,-,-,-,-,-,-,-,-,-,-,-,-,-,-,-,-,-,-,-,-,-,-,-,-,-,-,-,-,-,-,-,-,-,-,-,-,-,-,-,-,-,-,-,-,-,-,-,-,-,-
2025-05-06 16:53:36.278,OutcomeType,Unknown,0,Unknown,-,-,-,11,-,-,-,-,Success,-,-,-,-,-,-,-,-,-,-,-,-,-,-,-,-,-,-,-,-,-,-,-,-,-,-,-,-,-,-,-,-,-,-,-,-,-,-,-,-,-,-,-,-,-,-,-,-,-,-
2025-05-06 16:53:36.278,RewardCollected,Unknown,0,Unknown,-,-,-,11,-,-,-,-,-,-,-,-,-,-,-,-,-,-,-,-,-,-,-,-,-,-,-,-,-,-,-,-,-,-,-,-,-,-,-,-,-,-,-,-,-,-,-,-,-,-,-,-,-,-,-,-,-,-,-
2025-05-06 16:53:36.279,ButtonPresses,Unknown,0,Unknown,-,-,-,11,-,-,-,-,-,-,-,-,-,-,-,-,-,-,-,-,-,-,-,15,2.081:left|2.317:left|2.486:left|2.655:left|2.831:left|3.005:left|3.181:left|3.377:left|3.591:left|3.803:left|4.015:left|4.214:left|4.414:left|4.620:left|4.821:left,-,-,-,-,-,-,-,-,-,-,-,-,-,-,-,-,-,-,-,-,-,-,-,-,-,-,-,-,-,-,-,-,-,-
2025-05-06 16:53:36.352,MovementStep,Unknown,0,Unknown,-,0,Practice_EqualRatio,11,2,3,-,-,Success,-,-,-,-,-,121.094,121.601,0.507,True,3,-6.50,-2.50,-7.50,-2.50,-,-,0.169,False,-,-,-,-,-,-,-,-,-,-,-,-,-,-,-,-,-,-,-,-,-,-,-,-,-,-,-,-,-,-,-,-
2025-05-06 16:53:37.583,InfoMessage,Unknown,0,Unknown,-,-,-,-,-,-,-,-,-,-,-,-,-,-,-,-,-,-,-,-,-,-,-,-,-,-,-,-,-,-,-,-,-,-,-,-,-,-,-,-,-,-,-,-,-,-,-,-,-,-,-,-,-,-,-,-,-,-,-
2025-05-06 16:53:39.730,PracticeTrialStart,Unknown,0,Unknown,True,0,-,12,-,-,-,-,-,-,-,-,-,-,-,-,-,-,-,-,-,-,-,-,-,-,-,-,-,-,-,-,-,-,-,-,-,-,-,-,-,-,-,-,-,-,-,-,-,-,-,-,-,-,-,-,-,-,-
2025-05-06 16:53:41.763,MovementStart,Unknown,0,Unknown,-,0,-,12,-,-,-,-,-,-,-,-,-,-,-,-,-,-,-,0.50,2.50,-,-,-,-,-,-,-,-,-,-,-,-,-,-,-,-,-,-,-,-,-,-,-,-,-,-,-,-,-,-,-,-,-,-,-,-,-,-
2025-05-06 16:53:41.863,MovementStep,Unknown,0,Unknown,-,0,Practice_EqualRatio,12,3,5,-,-,Pending,-,-,-,-,-,125.227,126.665,1.438,True,5,0.50,2.50,-0.50,2.50,-,-,0.288,False,-,-,-,-,-,-,-,-,-,-,-,-,-,-,-,-,-,-,-,-,-,-,-,-,-,-,-,-,-,-,-,-
2025-05-06 16:53:44.964,MovementDuration,Unknown,0,Unknown,-,-,-,12,-,-,-,-,Failure,-,-,-,-,4.392,-,-,-,-,-,-,-,-,-,-,-,-,-,-,-,-,-,-,-,-,-,-,-,-,-,-,-,-,-,-,-,-,-,-,-,-,-,-,-,-,-,-,-,-,-
2025-05-06 16:53:44.964,OutcomeType,Unknown,0,Unknown,-,-,-,12,-,-,-,-,Failure,-,-,-,-,-,-,-,-,-,-,-,-,-,-,-,-,-,-,-,-,-,-,-,-,-,-,-,-,-,-,-,-,-,-,-,-,-,-,-,-,-,-,-,-,-,-,-,-,-,-
2025-05-06 16:53:44.965,RewardCollected,Unknown,0,Unknown,-,-,-,12,-,-,-,-,-,-,-,-,-,-,-,-,-,-,-,-,-,-,-,-,-,-,-,-,-,-,-,-,-,-,-,-,-,-,-,-,-,-,-,-,-,-,-,-,-,-,-,-,-,-,-,-,-,-,-
2025-05-06 16:53:44.965,ButtonPresses,Unknown,0,Unknown,-,-,-,12,-,-,-,-,-,-,-,-,-,-,-,-,-,-,-,-,-,-,-,7,0.588:left|1.175:left|1.421:left|1.687:left|1.925:left|2.175:left|2.401:left,-,-,-,-,-,-,-,-,-,-,-,-,-,-,-,-,-,-,-,-,-,-,-,-,-,-,-,-,-,-,-,-,-,-
2025-05-06 16:53:44.968,DecisionOutcome,Unknown,0,Unknown,True,0,Practice_EqualRatio,12,3,5,Work,0.739,Failure,False,0,0,0,4.392,-,-,-,-,-,-,-,-,-,7,0.588:left|1.175:left|1.421:left|1.687:left|1.925:left|2.175:left|2.401:left,0.627,False,0.1,-,-,0.00,0.00,0,0,-,-,-,-,-,-,-,-,-,-,-,-,-,-,-,-,-,-,-,-,-,-,-,-,-
2025-05-06 16:53:44.968,ButtonPresses,Unknown,0,Unknown,-,-,-,12,-,-,-,-,-,-,-,-,-,-,-,-,-,-,-,-,-,-,-,7,0.588:left|1.175:left|1.421:left|1.687:left|1.925:left|2.175:left|2.401:left,-,-,-,-,-,-,-,-,-,-,-,-,-,-,-,-,-,-,-,-,-,-,-,-,-,-,-,-,-,-,-,-,-,-
2025-05-06 16:53:44.968,MovementComplete,Unknown,0,Unknown,-,-,-,12,-,-,-,-,-,False,-,-,-,-,-,-,-,-,-,-,-,-,-,-,-,-,-,-,-,-,-,-,-,-,-,-,-,-,-,-,-,-,-,-,-,-,-,-,-,-,-,-,-,-,-,-,-,-,-
2025-05-06 16:53:44.969,RewardCollected,Unknown,0,Unknown,-,-,-,12,-,-,-,-,-,-,-,-,-,-,-,-,-,-,-,-,-,-,-,-,-,-,-,-,-,-,-,-,-,-,-,-,-,-,-,-,-,-,-,-,-,-,-,-,-,-,-,-,-,-,-,-,-,-,-
2025-05-06 16:53:57.255,CHECK_QUESTION,Unknown,0,Unknown,-,-,-,1,-,-,-,-,-,-,-,-,-,-,-,-,-,-,-,-,-,-,-,-,-,-,-,-,-,-,-,-,-,-,-,-,-,-,-,-,-,1,1,FruitPreference,"Choose preferred fruit between Apple(Clone) and Watermelon(Clone)",T,T,True,8.943,-,-,-,-,-,-,-,-,-,-
2025-05-06 16:53:59.656,CHECK_QUESTION,Unknown,0,Unknown,-,-,-,2,-,-,-,-,-,-,-,-,-,-,-,-,-,-,-,-,-,-,-,-,-,-,-,-,-,-,-,-,-,-,-,-,-,-,-,-,-,1,2,FruitPreference,"Choose preferred fruit between Apple(Clone) and Grapes(Clone)",T,T,True,0.420,-,-,-,-,-,-,-,-,-,-
2025-05-06 16:54:02.115,CHECK_QUESTION,Unknown,0,Unknown,-,-,-,3,-,-,-,-,-,-,-,-,-,-,-,-,-,-,-,-,-,-,-,-,-,-,-,-,-,-,-,-,-,-,-,-,-,-,-,-,-,1,3,FruitPreference,"Choose preferred fruit between Grapes(Clone) and Watermelon(Clone)",F,T,False,0.456,-,-,-,-,-,-,-,-,-,-
2025-05-06 16:54:04.477,CHECK_QUESTION,Unknown,0,Unknown,-,-,-,4,-,-,-,-,-,-,-,-,-,-,-,-,-,-,-,-,-,-,-,-,-,-,-,-,-,-,-,-,-,-,-,-,-,-,-,-,-,1,4,FruitPreference,"Choose preferred fruit between Apple(Clone) and Watermelon(Clone)",T,T,True,0.381,-,-,-,-,-,-,-,-,-,-
2025-05-06 16:54:06.976,CHECK_QUESTION,Unknown,0,Unknown,-,-,-,5,-,-,-,-,-,-,-,-,-,-,-,-,-,-,-,-,-,-,-,-,-,-,-,-,-,-,-,-,-,-,-,-,-,-,-,-,-,1,5,FruitPreference,"Choose preferred fruit between Grapes(Clone) and Apple(Clone)",T,T,True,0.500,-,-,-,-,-,-,-,-,-,-
2025-05-06 16:54:09.529,CHECK_QUESTION,Unknown,0,Unknown,-,-,-,6,-,-,-,-,-,-,-,-,-,-,-,-,-,-,-,-,-,-,-,-,-,-,-,-,-,-,-,-,-,-,-,-,-,-,-,-,-,1,6,FruitPreference,"Choose preferred fruit between Grapes(Clone) and Watermelon(Clone)",T,T,True,0.554,-,-,-,-,-,-,-,-,-,-
2025-05-06 16:54:15.366,InfoMessage,Unknown,0,Unknown,-,-,-,-,-,-,-,-,-,-,-,-,-,-,-,-,-,-,-,-,-,-,-,-,-,-,-,-,-,-,-,-,-,-,-,-,-,-,-,-,-,-,-,-,-,-,-,-,-,-,-,-,-,-,-,-,-,-,-
2025-05-06 16:54:17.193,PracticeTrialStart,Unknown,0,Unknown,True,0,-,1,-,-,-,-,-,-,-,-,-,-,-,-,-,-,-,-,-,-,-,-,-,-,-,-,-,-,-,-,-,-,-,-,-,-,-,-,-,-,-,-,-,-,-,-,-,-,-,-,-,-,-,-,-,-,-
2025-05-06 16:54:18.730,MovementStart,Unknown,0,Unknown,-,0,-,1,-,-,-,-,-,-,-,-,-,-,-,-,-,-,-,-7.50,3.50,-,-,-,-,-,-,-,-,-,-,-,-,-,-,-,-,-,-,-,-,-,-,-,-,-,-,-,-,-,-,-,-,-,-,-,-,-,-
2025-05-06 16:54:18.830,MovementStep,Unknown,0,Unknown,-,0,Practice_HighLowRatio,1,3,5,-,-,Pending,-,-,-,-,-,161.973,162.707,0.734,True,5,-7.50,3.50,-6.50,3.50,-,-,0.147,False,-,-,-,-,-,-,-,-,-,-,-,-,-,-,-,-,-,-,-,-,-,-,-,-,-,-,-,-,-,-,-,-
2025-05-06 16:54:19.474,MovementStart,Unknown,0,Unknown,-,0,-,1,-,-,-,-,-,-,-,-,-,-,-,-,-,-,-,-6.50,3.50,-,-,-,-,-,-,-,-,-,-,-,-,-,-,-,-,-,-,-,-,-,-,-,-,-,-,-,-,-,-,-,-,-,-,-,-,-,-
2025-05-06 16:54:19.574,MovementStep,Unknown,0,Unknown,-,0,Practice_HighLowRatio,1,3,5,-,-,Pending,-,-,-,-,-,162.742,163.451,0.709,True,5,-6.50,3.50,-5.50,3.50,-,-,0.142,False,-,-,-,-,-,-,-,-,-,-,-,-,-,-,-,-,-,-,-,-,-,-,-,-,-,-,-,-,-,-,-,-
2025-05-06 16:54:20.268,MovementStart,Unknown,0,Unknown,-,0,-,1,-,-,-,-,-,-,-,-,-,-,-,-,-,-,-,-5.50,3.50,-,-,-,-,-,-,-,-,-,-,-,-,-,-,-,-,-,-,-,-,-,-,-,-,-,-,-,-,-,-,-,-,-,-,-,-,-,-
2025-05-06 16:54:20.368,MovementStep,Unknown,0,Unknown,-,0,Practice_HighLowRatio,1,3,5,-,-,Pending,-,-,-,-,-,163.511,164.245,0.733,True,5,-5.50,3.50,-4.50,3.50,-,-,0.147,False,-,-,-,-,-,-,-,-,-,-,-,-,-,-,-,-,-,-,-,-,-,-,-,-,-,-,-,-,-,-,-,-
2025-05-06 16:54:21.106,MovementStart,Unknown,0,Unknown,-,0,-,1,-,-,-,-,-,-,-,-,-,-,-,-,-,-,-,-4.50,3.50,-,-,-,-,-,-,-,-,-,-,-,-,-,-,-,-,-,-,-,-,-,-,-,-,-,-,-,-,-,-,-,-,-,-,-,-,-,-
2025-05-06 16:54:21.206,MovementStep,Unknown,0,Unknown,-,0,Practice_HighLowRatio,1,3,5,-,-,Pending,-,-,-,-,-,164.321,165.083,0.762,True,5,-4.50,3.50,-3.50,3.50,-,-,0.152,False,-,-,-,-,-,-,-,-,-,-,-,-,-,-,-,-,-,-,-,-,-,-,-,-,-,-,-,-,-,-,-,-
2025-05-06 16:54:21.953,MovementStart,Unknown,0,Unknown,-,0,-,1,-,-,-,-,-,-,-,-,-,-,-,-,-,-,-,-3.50,3.50,-,-,-,-,-,-,-,-,-,-,-,-,-,-,-,-,-,-,-,-,-,-,-,-,-,-,-,-,-,-,-,-,-,-,-,-,-,-
2025-05-06 16:54:21.964,ScoreUpdate,Unknown,0,Unknown,True,0,-,1,-,-,-,-,-,-,10,0,30,-,-,-,-,-,-,-,-,-,-,-,-,-,-,-,-,-,-,-,-,-,-,-,-,-,-,-,-,-,-,-,-,-,-,-,-,-,-,-,-,-,-,-,-,-,-
2025-05-06 16:54:21.965,CollisionTime,Unknown,0,Unknown,True,0,-,1,-,-,-,-,-,-,-,-,-,3.867,-,-,-,-,-,-,-,-,-,-,-,-,-,-,-,-,-,-,-,-,-,-,-,-,-,-,-,-,-,-,-,-,-,-,-,-,-,-,-,-,-,-,-,-,-
2025-05-06 16:54:21.966,MovementDuration,Unknown,0,Unknown,-,-,-,1,-,-,-,-,Success,-,-,-,-,3.867,-,-,-,-,-,-,-,-,-,-,-,-,-,-,-,-,-,-,-,-,-,-,-,-,-,-,-,-,-,-,-,-,-,-,-,-,-,-,-,-,-,-,-,-,-
2025-05-06 16:54:21.968,DecisionOutcome,Unknown,0,Unknown,True,0,Practice_HighLowRatio,1,3,5,Work,0.413,Success,True,10,0,0,3.867,-,-,-,-,-,-,-,-,-,25,0.794:right|0.997:right|1.145:right|1.286:right|1.428:right|1.563:right|1.703:right|1.849:right|2.009:right|2.173:right|2.332:right|2.491:right|2.653:right|2.813:right|2.966:right|3.142:right|3.304:right|3.448:right|3.645:right|3.805:right|3.971:right|4.141:right|4.308:right|4.475:right|4.651:right,0.155,False,0.1,-,-,0.00,0.00,0,0,-,-,-,-,-,-,-,-,-,-,-,-,-,-,-,-,-,-,-,-,-,-,-,-,-
2025-05-06 16:54:21.968,MovementComplete,Unknown,0,Unknown,-,-,-,1,-,-,-,-,-,True,-,-,-,-,-,-,-,-,-,-,-,-,-,-,-,-,-,-,-,-,-,-,-,-,-,-,-,-,-,-,-,-,-,-,-,-,-,-,-,-,-,-,-,-,-,-,-,-,-
2025-05-06 16:54:21.969,RewardCollected,Unknown,0,Unknown,-,-,-,1,-,-,-,-,-,-,-,-,-,-,-,-,-,-,-,-,-,-,-,-,-,-,-,-,-,-,-,-,-,-,-,-,-,-,-,-,-,-,-,-,-,-,-,-,-,-,-,-,-,-,-,-,-,-,-
2025-05-06 16:54:21.969,OutcomeType,Unknown,0,Unknown,-,-,-,1,-,-,-,-,Success,-,-,-,-,-,-,-,-,-,-,-,-,-,-,-,-,-,-,-,-,-,-,-,-,-,-,-,-,-,-,-,-,-,-,-,-,-,-,-,-,-,-,-,-,-,-,-,-,-,-
2025-05-06 16:54:21.969,RewardCollected,Unknown,0,Unknown,-,-,-,1,-,-,-,-,-,-,-,-,-,-,-,-,-,-,-,-,-,-,-,-,-,-,-,-,-,-,-,-,-,-,-,-,-,-,-,-,-,-,-,-,-,-,-,-,-,-,-,-,-,-,-,-,-,-,-
2025-05-06 16:54:21.970,ButtonPresses,Unknown,0,Unknown,-,-,-,1,-,-,-,-,-,-,-,-,-,-,-,-,-,-,-,-,-,-,-,25,0.794:right|0.997:right|1.145:right|1.286:right|1.428:right|1.563:right|1.703:right|1.849:right|2.009:right|2.173:right|2.332:right|2.491:right|2.653:right|2.813:right|2.966:right|3.142:right|3.304:right|3.448:right|3.645:right|3.805:right|3.971:right|4.141:right|4.308:right|4.475:right|4.651:right,-,-,-,-,-,-,-,-,-,-,-,-,-,-,-,-,-,-,-,-,-,-,-,-,-,-,-,-,-,-,-,-,-,-
2025-05-06 16:54:22.053,MovementStep,Unknown,0,Unknown,-,0,Practice_HighLowRatio,1,3,5,-,-,Success,-,-,-,-,-,165.150,165.930,0.780,True,5,-3.50,3.50,-2.50,3.50,-,-,0.156,False,-,-,-,-,-,-,-,-,-,-,-,-,-,-,-,-,-,-,-,-,-,-,-,-,-,-,-,-,-,-,-,-
2025-05-06 16:54:23.459,InfoMessage,Unknown,0,Unknown,-,-,-,-,-,-,-,-,-,-,-,-,-,-,-,-,-,-,-,-,-,-,-,-,-,-,-,-,-,-,-,-,-,-,-,-,-,-,-,-,-,-,-,-,-,-,-,-,-,-,-,-,-,-,-,-,-,-,-
2025-05-06 16:54:25.266,PracticeTrialStart,Unknown,0,Unknown,True,0,-,2,-,-,-,-,-,-,-,-,-,-,-,-,-,-,-,-,-,-,-,-,-,-,-,-,-,-,-,-,-,-,-,-,-,-,-,-,-,-,-,-,-,-,-,-,-,-,-,-,-,-,-,-,-,-,-
2025-05-06 16:54:25.886,MovementStart,Unknown,0,Unknown,-,0,-,2,-,-,-,-,-,-,-,-,-,-,-,-,-,-,-,3.50,0.50,-,-,-,-,-,-,-,-,-,-,-,-,-,-,-,-,-,-,-,-,-,-,-,-,-,-,-,-,-,-,-,-,-,-,-,-,-,-
2025-05-06 16:54:25.986,MovementStep,Unknown,0,Unknown,-,0,Practice_HighLowRatio,2,1,1,-,-,Pending,-,-,-,-,-,169.312,169.412,0.100,True,1,3.50,0.50,2.50,0.50,-,-,0.100,True,-,-,-,-,-,-,-,-,-,-,-,-,-,-,-,-,-,-,-,-,-,-,-,-,-,-,-,-,-,-,-,-
2025-05-06 16:54:26.076,MovementStart,Unknown,0,Unknown,-,0,-,2,-,-,-,-,-,-,-,-,-,-,-,-,-,-,-,2.50,0.50,-,-,-,-,-,-,-,-,-,-,-,-,-,-,-,-,-,-,-,-,-,-,-,-,-,-,-,-,-,-,-,-,-,-,-,-,-,-
2025-05-06 16:54:26.174,MovementStep,Unknown,0,Unknown,-,0,Practice_HighLowRatio,2,1,1,-,-,Pending,-,-,-,-,-,169.502,169.601,0.099,True,1,2.50,0.50,1.50,0.50,-,-,0.099,True,-,-,-,-,-,-,-,-,-,-,-,-,-,-,-,-,-,-,-,-,-,-,-,-,-,-,-,-,-,-,-,-
2025-05-06 16:54:26.247,MovementStart,Unknown,0,Unknown,-,0,-,2,-,-,-,-,-,-,-,-,-,-,-,-,-,-,-,1.50,0.50,-,-,-,-,-,-,-,-,-,-,-,-,-,-,-,-,-,-,-,-,-,-,-,-,-,-,-,-,-,-,-,-,-,-,-,-,-,-
2025-05-06 16:54:26.347,MovementStep,Unknown,0,Unknown,-,0,Practice_HighLowRatio,2,1,1,-,-,Pending,-,-,-,-,-,169.674,169.774,0.100,True,1,1.50,0.50,0.50,0.50,-,-,0.100,True,-,-,-,-,-,-,-,-,-,-,-,-,-,-,-,-,-,-,-,-,-,-,-,-,-,-,-,-,-,-,-,-
2025-05-06 16:54:26.467,MovementStart,Unknown,0,Unknown,-,0,-,2,-,-,-,-,-,-,-,-,-,-,-,-,-,-,-,0.50,0.50,-,-,-,-,-,-,-,-,-,-,-,-,-,-,-,-,-,-,-,-,-,-,-,-,-,-,-,-,-,-,-,-,-,-,-,-,-,-
2025-05-06 16:54:26.568,MovementStep,Unknown,0,Unknown,-,0,Practice_HighLowRatio,2,1,1,-,-,Pending,-,-,-,-,-,169.893,169.994,0.101,True,1,0.50,0.50,-0.50,0.50,-,-,0.101,False,-,-,-,-,-,-,-,-,-,-,-,-,-,-,-,-,-,-,-,-,-,-,-,-,-,-,-,-,-,-,-,-
2025-05-06 16:54:26.655,MovementStart,Unknown,0,Unknown,-,0,-,2,-,-,-,-,-,-,-,-,-,-,-,-,-,-,-,-0.50,0.50,-,-,-,-,-,-,-,-,-,-,-,-,-,-,-,-,-,-,-,-,-,-,-,-,-,-,-,-,-,-,-,-,-,-,-,-,-,-
2025-05-06 16:54:26.675,ScoreUpdate,Unknown,0,Unknown,True,0,-,2,-,-,-,-,-,-,10,0,40,-,-,-,-,-,-,-,-,-,-,-,-,-,-,-,-,-,-,-,-,-,-,-,-,-,-,-,-,-,-,-,-,-,-,-,-,-,-,-,-,-,-,-,-,-,-
2025-05-06 16:54:26.676,CollisionTime,Unknown,0,Unknown,True,0,-,2,-,-,-,-,-,-,-,-,-,0.788,-,-,-,-,-,-,-,-,-,-,-,-,-,-,-,-,-,-,-,-,-,-,-,-,-,-,-,-,-,-,-,-,-,-,-,-,-,-,-,-,-,-,-,-,-
2025-05-06 16:54:26.677,MovementDuration,Unknown,0,Unknown,-,-,-,2,-,-,-,-,Success,-,-,-,-,0.788,-,-,-,-,-,-,-,-,-,-,-,-,-,-,-,-,-,-,-,-,-,-,-,-,-,-,-,-,-,-,-,-,-,-,-,-,-,-,-,-,-,-,-,-,-
2025-05-06 16:54:26.679,DecisionOutcome,Unknown,0,Unknown,True,0,Practice_HighLowRatio,2,1,1,Work,0.398,Success,True,10,0,0,0.788,-,-,-,-,-,-,-,-,-,5,0.511:left|0.701:left|0.873:left|1.092:left|1.281:left,0.158,False,0.1,-,-,0.00,0.00,0,0,-,-,-,-,-,-,-,-,-,-,-,-,-,-,-,-,-,-,-,-,-,-,-,-,-
2025-05-06 16:54:26.679,MovementComplete,Unknown,0,Unknown,-,-,-,2,-,-,-,-,-,True,-,-,-,-,-,-,-,-,-,-,-,-,-,-,-,-,-,-,-,-,-,-,-,-,-,-,-,-,-,-,-,-,-,-,-,-,-,-,-,-,-,-,-,-,-,-,-,-,-
2025-05-06 16:54:26.680,RewardCollected,Unknown,0,Unknown,-,-,-,2,-,-,-,-,-,-,-,-,-,-,-,-,-,-,-,-,-,-,-,-,-,-,-,-,-,-,-,-,-,-,-,-,-,-,-,-,-,-,-,-,-,-,-,-,-,-,-,-,-,-,-,-,-,-,-
2025-05-06 16:54:26.680,OutcomeType,Unknown,0,Unknown,-,-,-,2,-,-,-,-,Success,-,-,-,-,-,-,-,-,-,-,-,-,-,-,-,-,-,-,-,-,-,-,-,-,-,-,-,-,-,-,-,-,-,-,-,-,-,-,-,-,-,-,-,-,-,-,-,-,-,-
2025-05-06 16:54:26.680,RewardCollected,Unknown,0,Unknown,-,-,-,2,-,-,-,-,-,-,-,-,-,-,-,-,-,-,-,-,-,-,-,-,-,-,-,-,-,-,-,-,-,-,-,-,-,-,-,-,-,-,-,-,-,-,-,-,-,-,-,-,-,-,-,-,-,-,-
2025-05-06 16:54:26.681,ButtonPresses,Unknown,0,Unknown,-,-,-,2,-,-,-,-,-,-,-,-,-,-,-,-,-,-,-,-,-,-,-,5,0.511:left|0.701:left|0.873:left|1.092:left|1.281:left,-,-,-,-,-,-,-,-,-,-,-,-,-,-,-,-,-,-,-,-,-,-,-,-,-,-,-,-,-,-,-,-,-,-
2025-05-06 16:54:26.756,MovementStep,Unknown,0,Unknown,-,0,Practice_HighLowRatio,2,1,1,-,-,Success,-,-,-,-,-,170.082,170.183,0.101,True,1,-0.50,0.50,-1.50,0.50,-,-,0.101,False,-,-,-,-,-,-,-,-,-,-,-,-,-,-,-,-,-,-,-,-,-,-,-,-,-,-,-,-,-,-,-,-
2025-05-06 16:54:31.524,InfoMessage,Unknown,0,Unknown,-,-,-,-,-,-,-,-,-,-,-,-,-,-,-,-,-,-,-,-,-,-,-,-,-,-,-,-,-,-,-,-,-,-,-,-,-,-,-,-,-,-,-,-,-,-,-,-,-,-,-,-,-,-,-,-,-,-,-
2025-05-06 16:54:33.717,PracticeTrialStart,Unknown,0,Unknown,True,0,-,3,-,-,-,-,-,-,-,-,-,-,-,-,-,-,-,-,-,-,-,-,-,-,-,-,-,-,-,-,-,-,-,-,-,-,-,-,-,-,-,-,-,-,-,-,-,-,-,-,-,-,-,-,-,-,-
2025-05-06 16:54:38.706,MovementStart,Unknown,0,Unknown,-,0,-,3,-,-,-,-,-,-,-,-,-,-,-,-,-,-,-,-5.50,-2.50,-,-,-,-,-,-,-,-,-,-,-,-,-,-,-,-,-,-,-,-,-,-,-,-,-,-,-,-,-,-,-,-,-,-,-,-,-,-
2025-05-06 16:54:38.805,MovementDuration,Unknown,0,Unknown,-,-,-,3,-,-,-,-,Failure,-,-,-,-,0.449,-,-,-,-,-,-,-,-,-,-,-,-,-,-,-,-,-,-,-,-,-,-,-,-,-,-,-,-,-,-,-,-,-,-,-,-,-,-,-,-,-,-,-,-,-
2025-05-06 16:54:38.806,OutcomeType,Unknown,0,Unknown,-,-,-,3,-,-,-,-,Failure,-,-,-,-,-,-,-,-,-,-,-,-,-,-,-,-,-,-,-,-,-,-,-,-,-,-,-,-,-,-,-,-,-,-,-,-,-,-,-,-,-,-,-,-,-,-,-,-,-,-
2025-05-06 16:54:38.806,RewardCollected,Unknown,0,Unknown,-,-,-,3,-,-,-,-,-,-,-,-,-,-,-,-,-,-,-,-,-,-,-,-,-,-,-,-,-,-,-,-,-,-,-,-,-,-,-,-,-,-,-,-,-,-,-,-,-,-,-,-,-,-,-,-,-,-,-
2025-05-06 16:54:38.807,ButtonPresses,Unknown,0,Unknown,-,-,-,3,-,-,-,-,-,-,-,-,-,-,-,-,-,-,-,-,-,-,-,3,4.532:right|4.718:right|4.882:right,-,-,-,-,-,-,-,-,-,-,-,-,-,-,-,-,-,-,-,-,-,-,-,-,-,-,-,-,-,-,-,-,-,-
2025-05-06 16:54:38.809,DecisionOutcome,Unknown,0,Unknown,True,0,Practice_HighLowRatio,3,2,3,Work,0.787,Failure,False,0,0,0,0.449,-,-,-,-,-,-,-,-,-,3,4.532:right|4.718:right|4.882:right,0.150,False,0.1,-,-,0.00,0.00,0,0,-,-,-,-,-,-,-,-,-,-,-,-,-,-,-,-,-,-,-,-,-,-,-,-,-
2025-05-06 16:54:38.810,ButtonPresses,Unknown,0,Unknown,-,-,-,3,-,-,-,-,-,-,-,-,-,-,-,-,-,-,-,-,-,-,-,3,4.532:right|4.718:right|4.882:right,-,-,-,-,-,-,-,-,-,-,-,-,-,-,-,-,-,-,-,-,-,-,-,-,-,-,-,-,-,-,-,-,-,-
2025-05-06 16:54:38.810,MovementComplete,Unknown,0,Unknown,-,-,-,3,-,-,-,-,-,False,-,-,-,-,-,-,-,-,-,-,-,-,-,-,-,-,-,-,-,-,-,-,-,-,-,-,-,-,-,-,-,-,-,-,-,-,-,-,-,-,-,-,-,-,-,-,-,-,-
2025-05-06 16:54:38.810,RewardCollected,Unknown,0,Unknown,-,-,-,3,-,-,-,-,-,-,-,-,-,-,-,-,-,-,-,-,-,-,-,-,-,-,-,-,-,-,-,-,-,-,-,-,-,-,-,-,-,-,-,-,-,-,-,-,-,-,-,-,-,-,-,-,-,-,-
2025-05-06 16:54:38.814,MovementStep,Unknown,0,Unknown,-,0,Practice_HighLowRatio,4,1,3,-,-,Failure,-,-,-,-,-,181.331,181.789,0.458,True,3,-5.50,-2.50,-4.50,-2.50,-,-,0.153,False,-,-,-,-,-,-,-,-,-,-,-,-,-,-,-,-,-,-,-,-,-,-,-,-,-,-,-,-,-,-,-,-
2025-05-06 16:54:39.967,InfoMessage,Unknown,0,Unknown,-,-,-,-,-,-,-,-,-,-,-,-,-,-,-,-,-,-,-,-,-,-,-,-,-,-,-,-,-,-,-,-,-,-,-,-,-,-,-,-,-,-,-,-,-,-,-,-,-,-,-,-,-,-,-,-,-,-,-
2025-05-06 16:54:41.912,PracticeTrialStart,Unknown,0,Unknown,True,0,-,4,-,-,-,-,-,-,-,-,-,-,-,-,-,-,-,-,-,-,-,-,-,-,-,-,-,-,-,-,-,-,-,-,-,-,-,-,-,-,-,-,-,-,-,-,-,-,-,-,-,-,-,-,-,-,-
2025-05-06 16:54:42.568,MovementStart,Unknown,0,Unknown,-,0,-,4,-,-,-,-,-,-,-,-,-,-,-,-,-,-,-,-5.50,3.50,-,-,-,-,-,-,-,-,-,-,-,-,-,-,-,-,-,-,-,-,-,-,-,-,-,-,-,-,-,-,-,-,-,-,-,-,-,-
2025-05-06 16:54:42.668,MovementStep,Unknown,0,Unknown,-,0,Practice_HighLowRatio,4,1,1,-,-,Pending,-,-,-,-,-,185.103,185.202,0.100,True,1,-5.50,3.50,-4.50,3.50,-,-,0.100,True,-,-,-,-,-,-,-,-,-,-,-,-,-,-,-,-,-,-,-,-,-,-,-,-,-,-,-,-,-,-,-,-
2025-05-06 16:54:42.755,MovementStart,Unknown,0,Unknown,-,0,-,4,-,-,-,-,-,-,-,-,-,-,-,-,-,-,-,-4.50,3.50,-,-,-,-,-,-,-,-,-,-,-,-,-,-,-,-,-,-,-,-,-,-,-,-,-,-,-,-,-,-,-,-,-,-,-,-,-,-
2025-05-06 16:54:42.855,MovementStep,Unknown,0,Unknown,-,0,Practice_HighLowRatio,4,1,1,-,-,Pending,-,-,-,-,-,185.290,185.390,0.100,True,1,-4.50,3.50,-3.50,3.50,-,-,0.100,True,-,-,-,-,-,-,-,-,-,-,-,-,-,-,-,-,-,-,-,-,-,-,-,-,-,-,-,-,-,-,-,-
2025-05-06 16:54:42.924,MovementStart,Unknown,0,Unknown,-,0,-,4,-,-,-,-,-,-,-,-,-,-,-,-,-,-,-,-3.50,3.50,-,-,-,-,-,-,-,-,-,-,-,-,-,-,-,-,-,-,-,-,-,-,-,-,-,-,-,-,-,-,-,-,-,-,-,-,-,-
2025-05-06 16:54:43.024,MovementStep,Unknown,0,Unknown,-,0,Practice_HighLowRatio,4,1,1,-,-,Pending,-,-,-,-,-,185.458,185.559,0.100,True,1,-3.50,3.50,-2.50,3.50,-,-,0.100,False,-,-,-,-,-,-,-,-,-,-,-,-,-,-,-,-,-,-,-,-,-,-,-,-,-,-,-,-,-,-,-,-
2025-05-06 16:54:43.101,MovementStart,Unknown,0,Unknown,-,0,-,4,-,-,-,-,-,-,-,-,-,-,-,-,-,-,-,-2.50,3.50,-,-,-,-,-,-,-,-,-,-,-,-,-,-,-,-,-,-,-,-,-,-,-,-,-,-,-,-,-,-,-,-,-,-,-,-,-,-
2025-05-06 16:54:43.201,MovementStep,Unknown,0,Unknown,-,0,Practice_HighLowRatio,4,1,1,-,-,Pending,-,-,-,-,-,185.636,185.735,0.100,True,1,-2.50,3.50,-1.50,3.50,-,-,0.100,True,-,-,-,-,-,-,-,-,-,-,-,-,-,-,-,-,-,-,-,-,-,-,-,-,-,-,-,-,-,-,-,-
2025-05-06 16:54:43.280,MovementStart,Unknown,0,Unknown,-,0,-,4,-,-,-,-,-,-,-,-,-,-,-,-,-,-,-,-1.50,3.50,-,-,-,-,-,-,-,-,-,-,-,-,-,-,-,-,-,-,-,-,-,-,-,-,-,-,-,-,-,-,-,-,-,-,-,-,-,-
2025-05-06 16:54:43.307,ScoreUpdate,Unknown,0,Unknown,True,0,-,4,-,-,-,-,-,-,10,0,50,-,-,-,-,-,-,-,-,-,-,-,-,-,-,-,-,-,-,-,-,-,-,-,-,-,-,-,-,-,-,-,-,-,-,-,-,-,-,-,-,-,-,-,-,-,-
2025-05-06 16:54:43.308,CollisionTime,Unknown,0,Unknown,True,0,-,4,-,-,-,-,-,-,-,-,-,0.737,-,-,-,-,-,-,-,-,-,-,-,-,-,-,-,-,-,-,-,-,-,-,-,-,-,-,-,-,-,-,-,-,-,-,-,-,-,-,-,-,-,-,-,-,-
2025-05-06 16:54:43.308,MovementDuration,Unknown,0,Unknown,-,-,-,4,-,-,-,-,Success,-,-,-,-,0.737,-,-,-,-,-,-,-,-,-,-,-,-,-,-,-,-,-,-,-,-,-,-,-,-,-,-,-,-,-,-,-,-,-,-,-,-,-,-,-,-,-,-,-,-,-
2025-05-06 16:54:43.311,DecisionOutcome,Unknown,0,Unknown,True,0,Practice_HighLowRatio,4,1,1,Work,0.546,Success,True,10,0,0,0.737,-,-,-,-,-,-,-,-,-,5,0.550:right|0.737:right|0.906:right|1.083:right|1.262:right,0.147,False,0.1,-,-,0.00,0.00,0,0,-,-,-,-,-,-,-,-,-,-,-,-,-,-,-,-,-,-,-,-,-,-,-,-,-
2025-05-06 16:54:43.311,MovementComplete,Unknown,0,Unknown,-,-,-,4,-,-,-,-,-,True,-,-,-,-,-,-,-,-,-,-,-,-,-,-,-,-,-,-,-,-,-,-,-,-,-,-,-,-,-,-,-,-,-,-,-,-,-,-,-,-,-,-,-,-,-,-,-,-,-
2025-05-06 16:54:43.312,RewardCollected,Unknown,0,Unknown,-,-,-,4,-,-,-,-,-,-,-,-,-,-,-,-,-,-,-,-,-,-,-,-,-,-,-,-,-,-,-,-,-,-,-,-,-,-,-,-,-,-,-,-,-,-,-,-,-,-,-,-,-,-,-,-,-,-,-
2025-05-06 16:54:43.312,OutcomeType,Unknown,0,Unknown,-,-,-,4,-,-,-,-,Success,-,-,-,-,-,-,-,-,-,-,-,-,-,-,-,-,-,-,-,-,-,-,-,-,-,-,-,-,-,-,-,-,-,-,-,-,-,-,-,-,-,-,-,-,-,-,-,-,-,-
2025-05-06 16:54:43.312,RewardCollected,Unknown,0,Unknown,-,-,-,4,-,-,-,-,-,-,-,-,-,-,-,-,-,-,-,-,-,-,-,-,-,-,-,-,-,-,-,-,-,-,-,-,-,-,-,-,-,-,-,-,-,-,-,-,-,-,-,-,-,-,-,-,-,-,-
2025-05-06 16:54:43.313,ButtonPresses,Unknown,0,Unknown,-,-,-,4,-,-,-,-,-,-,-,-,-,-,-,-,-,-,-,-,-,-,-,5,0.550:right|0.737:right|0.906:right|1.083:right|1.262:right,-,-,-,-,-,-,-,-,-,-,-,-,-,-,-,-,-,-,-,-,-,-,-,-,-,-,-,-,-,-,-,-,-,-
2025-05-06 16:54:43.380,MovementStep,Unknown,0,Unknown,-,0,Practice_HighLowRatio,4,1,1,-,-,Success,-,-,-,-,-,185.815,185.915,0.100,True,1,-1.50,3.50,-0.50,3.50,-,-,0.100,True,-,-,-,-,-,-,-,-,-,-,-,-,-,-,-,-,-,-,-,-,-,-,-,-,-,-,-,-,-,-,-,-
2025-05-06 16:54:48.164,InfoMessage,Unknown,0,Unknown,-,-,-,-,-,-,-,-,-,-,-,-,-,-,-,-,-,-,-,-,-,-,-,-,-,-,-,-,-,-,-,-,-,-,-,-,-,-,-,-,-,-,-,-,-,-,-,-,-,-,-,-,-,-,-,-,-,-,-
2025-05-06 16:54:48.524,DecisionOutcome,Unknown,0,Unknown,True,0,Practice_HighLowRatio,5,1,1,Skip,0.370,Skip,False,0,0,0,0.000,-,-,-,-,-,-,-,-,-,0,-,-1.000,False,0.1,Skip,3,0.00,0.00,0,0,-,-,-,-,-,-,-,-,-,-,-,-,-,-,-,-,-,-,-,-,-,-,-,-,-
2025-05-06 16:54:48.526,ScoreUpdate,Unknown,0,Unknown,True,0,-,5,-,-,-,-,-,-,0,0,50,-,-,-,-,-,-,-,-,-,-,-,-,-,-,-,-,-,-,-,-,-,-,-,-,-,-,-,-,-,-,-,-,-,-,-,-,-,-,-,-,-,-,-,-,-,-
2025-05-06 16:54:52.685,InfoMessage,Unknown,0,Unknown,-,-,-,-,-,-,-,-,-,-,-,-,-,-,-,-,-,-,-,-,-,-,-,-,-,-,-,-,-,-,-,-,-,-,-,-,-,-,-,-,-,-,-,-,-,-,-,-,-,-,-,-,-,-,-,-,-,-,-
2025-05-06 16:54:52.692,DecisionOutcome,Unknown,0,Unknown,True,0,Practice_HighLowRatio,6,2,3,Skip,0.000,Skip,False,0,0,0,0.000,-,-,-,-,-,-,-,-,-,0,-,-1.000,False,0.1,Skip,3,0.00,0.00,0,0,-,-,-,-,-,-,-,-,-,-,-,-,-,-,-,-,-,-,-,-,-,-,-,-,-
2025-05-06 16:54:52.694,ScoreUpdate,Unknown,0,Unknown,True,0,-,6,-,-,-,-,-,-,0,0,50,-,-,-,-,-,-,-,-,-,-,-,-,-,-,-,-,-,-,-,-,-,-,-,-,-,-,-,-,-,-,-,-,-,-,-,-,-,-,-,-,-,-,-,-,-,-
2025-05-06 16:54:56.837,InfoMessage,Unknown,0,Unknown,-,-,-,-,-,-,-,-,-,-,-,-,-,-,-,-,-,-,-,-,-,-,-,-,-,-,-,-,-,-,-,-,-,-,-,-,-,-,-,-,-,-,-,-,-,-,-,-,-,-,-,-,-,-,-,-,-,-,-
2025-05-06 16:54:57.517,DecisionOutcome,Unknown,0,Unknown,True,0,Practice_HighLowRatio,7,3,5,Skip,0.691,Skip,False,0,0,0,0.000,-,-,-,-,-,-,-,-,-,0,-,-1.000,False,0.1,Skip,3,0.00,0.00,0,0,-,-,-,-,-,-,-,-,-,-,-,-,-,-,-,-,-,-,-,-,-,-,-,-,-
2025-05-06 16:54:57.519,ScoreUpdate,Unknown,0,Unknown,True,0,-,7,-,-,-,-,-,-,0,0,50,-,-,-,-,-,-,-,-,-,-,-,-,-,-,-,-,-,-,-,-,-,-,-,-,-,-,-,-,-,-,-,-,-,-,-,-,-,-,-,-,-,-,-,-,-,-
2025-05-06 16:55:01.671,InfoMessage,Unknown,0,Unknown,-,-,-,-,-,-,-,-,-,-,-,-,-,-,-,-,-,-,-,-,-,-,-,-,-,-,-,-,-,-,-,-,-,-,-,-,-,-,-,-,-,-,-,-,-,-,-,-,-,-,-,-,-,-,-,-,-,-,-
2025-05-06 16:55:03.987,PracticeTrialStart,Unknown,0,Unknown,True,0,-,8,-,-,-,-,-,-,-,-,-,-,-,-,-,-,-,-,-,-,-,-,-,-,-,-,-,-,-,-,-,-,-,-,-,-,-,-,-,-,-,-,-,-,-,-,-,-,-,-,-,-,-,-,-,-,-
2025-05-06 16:55:05.035,MovementStart,Unknown,0,Unknown,-,0,-,8,-,-,-,-,-,-,-,-,-,-,-,-,-,-,-,4.50,2.50,-,-,-,-,-,-,-,-,-,-,-,-,-,-,-,-,-,-,-,-,-,-,-,-,-,-,-,-,-,-,-,-,-,-,-,-,-,-
2025-05-06 16:55:05.135,MovementStep,Unknown,0,Unknown,-,0,Practice_HighLowRatio,8,1,1,-,-,Pending,-,-,-,-,-,206.692,206.792,0.100,True,1,4.50,2.50,3.50,2.50,-,-,0.100,False,-,-,-,-,-,-,-,-,-,-,-,-,-,-,-,-,-,-,-,-,-,-,-,-,-,-,-,-,-,-,-,-
2025-05-06 16:55:05.231,MovementStart,Unknown,0,Unknown,-,0,-,8,-,-,-,-,-,-,-,-,-,-,-,-,-,-,-,3.50,2.50,-,-,-,-,-,-,-,-,-,-,-,-,-,-,-,-,-,-,-,-,-,-,-,-,-,-,-,-,-,-,-,-,-,-,-,-,-,-
2025-05-06 16:55:05.331,MovementStep,Unknown,0,Unknown,-,0,Practice_HighLowRatio,8,1,1,-,-,Pending,-,-,-,-,-,206.888,206.988,0.100,True,1,3.50,2.50,2.50,2.50,-,-,0.100,False,-,-,-,-,-,-,-,-,-,-,-,-,-,-,-,-,-,-,-,-,-,-,-,-,-,-,-,-,-,-,-,-
2025-05-06 16:55:05.419,MovementStart,Unknown,0,Unknown,-,0,-,8,-,-,-,-,-,-,-,-,-,-,-,-,-,-,-,2.50,2.50,-,-,-,-,-,-,-,-,-,-,-,-,-,-,-,-,-,-,-,-,-,-,-,-,-,-,-,-,-,-,-,-,-,-,-,-,-,-
2025-05-06 16:55:05.519,MovementStep,Unknown,0,Unknown,-,0,Practice_HighLowRatio,8,1,1,-,-,Pending,-,-,-,-,-,207.076,207.176,0.100,True,1,2.50,2.50,1.50,2.50,-,-,0.100,True,-,-,-,-,-,-,-,-,-,-,-,-,-,-,-,-,-,-,-,-,-,-,-,-,-,-,-,-,-,-,-,-
2025-05-06 16:55:05.580,MovementStart,Unknown,0,Unknown,-,0,-,8,-,-,-,-,-,-,-,-,-,-,-,-,-,-,-,1.50,2.50,-,-,-,-,-,-,-,-,-,-,-,-,-,-,-,-,-,-,-,-,-,-,-,-,-,-,-,-,-,-,-,-,-,-,-,-,-,-
2025-05-06 16:55:05.681,MovementStep,Unknown,0,Unknown,-,0,Practice_HighLowRatio,8,1,1,-,-,Pending,-,-,-,-,-,207.238,207.338,0.100,True,1,1.50,2.50,0.50,2.50,-,-,0.100,False,-,-,-,-,-,-,-,-,-,-,-,-,-,-,-,-,-,-,-,-,-,-,-,-,-,-,-,-,-,-,-,-
2025-05-06 16:55:05.818,MovementStart,Unknown,0,Unknown,-,0,-,8,-,-,-,-,-,-,-,-,-,-,-,-,-,-,-,0.50,2.50,-,-,-,-,-,-,-,-,-,-,-,-,-,-,-,-,-,-,-,-,-,-,-,-,-,-,-,-,-,-,-,-,-,-,-,-,-,-
2025-05-06 16:55:05.845,ScoreUpdate,Unknown,0,Unknown,True,0,-,8,-,-,-,-,-,-,10,0,60,-,-,-,-,-,-,-,-,-,-,-,-,-,-,-,-,-,-,-,-,-,-,-,-,-,-,-,-,-,-,-,-,-,-,-,-,-,-,-,-,-,-,-,-,-,-
2025-05-06 16:55:05.845,CollisionTime,Unknown,0,Unknown,True,0,-,8,-,-,-,-,-,-,-,-,-,0.808,-,-,-,-,-,-,-,-,-,-,-,-,-,-,-,-,-,-,-,-,-,-,-,-,-,-,-,-,-,-,-,-,-,-,-,-,-,-,-,-,-,-,-,-,-
2025-05-06 16:55:05.846,MovementDuration,Unknown,0,Unknown,-,-,-,8,-,-,-,-,Success,-,-,-,-,0.808,-,-,-,-,-,-,-,-,-,-,-,-,-,-,-,-,-,-,-,-,-,-,-,-,-,-,-,-,-,-,-,-,-,-,-,-,-,-,-,-,-,-,-,-,-
2025-05-06 16:55:05.848,DecisionOutcome,Unknown,0,Unknown,True,0,Practice_HighLowRatio,8,1,1,Work,0.910,Success,True,10,0,0,0.808,-,-,-,-,-,-,-,-,-,5,0.939:left|1.135:left|1.324:left|1.485:left|1.723:left,0.162,False,0.1,-,-,0.00,0.00,0,0,-,-,-,-,-,-,-,-,-,-,-,-,-,-,-,-,-,-,-,-,-,-,-,-,-
2025-05-06 16:55:05.848,MovementComplete,Unknown,0,Unknown,-,-,-,8,-,-,-,-,-,True,-,-,-,-,-,-,-,-,-,-,-,-,-,-,-,-,-,-,-,-,-,-,-,-,-,-,-,-,-,-,-,-,-,-,-,-,-,-,-,-,-,-,-,-,-,-,-,-,-
2025-05-06 16:55:05.849,RewardCollected,Unknown,0,Unknown,-,-,-,8,-,-,-,-,-,-,-,-,-,-,-,-,-,-,-,-,-,-,-,-,-,-,-,-,-,-,-,-,-,-,-,-,-,-,-,-,-,-,-,-,-,-,-,-,-,-,-,-,-,-,-,-,-,-,-
2025-05-06 16:55:05.849,OutcomeType,Unknown,0,Unknown,-,-,-,8,-,-,-,-,Success,-,-,-,-,-,-,-,-,-,-,-,-,-,-,-,-,-,-,-,-,-,-,-,-,-,-,-,-,-,-,-,-,-,-,-,-,-,-,-,-,-,-,-,-,-,-,-,-,-,-
2025-05-06 16:55:05.850,RewardCollected,Unknown,0,Unknown,-,-,-,8,-,-,-,-,-,-,-,-,-,-,-,-,-,-,-,-,-,-,-,-,-,-,-,-,-,-,-,-,-,-,-,-,-,-,-,-,-,-,-,-,-,-,-,-,-,-,-,-,-,-,-,-,-,-,-
2025-05-06 16:55:05.850,ButtonPresses,Unknown,0,Unknown,-,-,-,8,-,-,-,-,-,-,-,-,-,-,-,-,-,-,-,-,-,-,-,5,0.939:left|1.135:left|1.324:left|1.485:left|1.723:left,-,-,-,-,-,-,-,-,-,-,-,-,-,-,-,-,-,-,-,-,-,-,-,-,-,-,-,-,-,-,-,-,-,-
2025-05-06 16:55:05.919,MovementStep,Unknown,0,Unknown,-,0,Practice_HighLowRatio,8,1,1,-,-,Success,-,-,-,-,-,207.475,207.576,0.101,True,1,0.50,2.50,-0.50,2.50,-,-,0.101,False,-,-,-,-,-,-,-,-,-,-,-,-,-,-,-,-,-,-,-,-,-,-,-,-,-,-,-,-,-,-,-,-
2025-05-06 16:55:10.235,InfoMessage,Unknown,0,Unknown,-,-,-,-,-,-,-,-,-,-,-,-,-,-,-,-,-,-,-,-,-,-,-,-,-,-,-,-,-,-,-,-,-,-,-,-,-,-,-,-,-,-,-,-,-,-,-,-,-,-,-,-,-,-,-,-,-,-,-
2025-05-06 16:55:13.802,PracticeTrialStart,Unknown,0,Unknown,True,0,-,9,-,-,-,-,-,-,-,-,-,-,-,-,-,-,-,-,-,-,-,-,-,-,-,-,-,-,-,-,-,-,-,-,-,-,-,-,-,-,-,-,-,-,-,-,-,-,-,-,-,-,-,-,-,-,-
2025-05-06 16:55:16.211,MovementStart,Unknown,0,Unknown,-,0,-,9,-,-,-,-,-,-,-,-,-,-,-,-,-,-,-,-7.50,2.50,-,-,-,-,-,-,-,-,-,-,-,-,-,-,-,-,-,-,-,-,-,-,-,-,-,-,-,-,-,-,-,-,-,-,-,-,-,-
2025-05-06 16:55:16.311,MovementStep,Unknown,0,Unknown,-,0,Practice_HighLowRatio,9,2,3,-,-,Pending,-,-,-,-,-,217.111,217.507,0.396,True,3,-7.50,2.50,-6.50,2.50,-,-,0.132,False,-,-,-,-,-,-,-,-,-,-,-,-,-,-,-,-,-,-,-,-,-,-,-,-,-,-,-,-,-,-,-,-
2025-05-06 16:55:16.723,MovementStart,Unknown,0,Unknown,-,0,-,9,-,-,-,-,-,-,-,-,-,-,-,-,-,-,-,-6.50,2.50,-,-,-,-,-,-,-,-,-,-,-,-,-,-,-,-,-,-,-,-,-,-,-,-,-,-,-,-,-,-,-,-,-,-,-,-,-,-
2025-05-06 16:55:16.822,MovementStep,Unknown,0,Unknown,-,0,Practice_HighLowRatio,9,2,3,-,-,Pending,-,-,-,-,-,217.564,218.018,0.454,True,3,-6.50,2.50,-5.50,2.50,-,-,0.151,False,-,-,-,-,-,-,-,-,-,-,-,-,-,-,-,-,-,-,-,-,-,-,-,-,-,-,-,-,-,-,-,-
2025-05-06 16:55:17.281,MovementStart,Unknown,0,Unknown,-,0,-,9,-,-,-,-,-,-,-,-,-,-,-,-,-,-,-,-5.50,2.50,-,-,-,-,-,-,-,-,-,-,-,-,-,-,-,-,-,-,-,-,-,-,-,-,-,-,-,-,-,-,-,-,-,-,-,-,-,-
2025-05-06 16:55:17.381,MovementStep,Unknown,0,Unknown,-,0,Practice_HighLowRatio,9,2,3,-,-,Pending,-,-,-,-,-,218.105,218.577,0.472,True,3,-5.50,2.50,-4.50,2.50,-,-,0.157,False,-,-,-,-,-,-,-,-,-,-,-,-,-,-,-,-,-,-,-,-,-,-,-,-,-,-,-,-,-,-,-,-
2025-05-06 16:55:17.832,MovementStart,Unknown,0,Unknown,-,0,-,9,-,-,-,-,-,-,-,-,-,-,-,-,-,-,-,-4.50,2.50,-,-,-,-,-,-,-,-,-,-,-,-,-,-,-,-,-,-,-,-,-,-,-,-,-,-,-,-,-,-,-,-,-,-,-,-,-,-
2025-05-06 16:55:17.933,MovementStep,Unknown,0,Unknown,-,0,Practice_HighLowRatio,9,2,3,-,-,Pending,-,-,-,-,-,218.677,219.129,0.452,True,3,-4.51,2.50,-3.50,2.50,-,-,0.151,False,-,-,-,-,-,-,-,-,-,-,-,-,-,-,-,-,-,-,-,-,-,-,-,-,-,-,-,-,-,-,-,-
2025-05-06 16:55:18.340,MovementStart,Unknown,0,Unknown,-,0,-,9,-,-,-,-,-,-,-,-,-,-,-,-,-,-,-,-3.50,2.50,-,-,-,-,-,-,-,-,-,-,-,-,-,-,-,-,-,-,-,-,-,-,-,-,-,-,-,-,-,-,-,-,-,-,-,-,-,-
2025-05-06 16:55:18.365,ScoreUpdate,Unknown,0,Unknown,True,0,-,9,-,-,-,-,-,-,10,0,70,-,-,-,-,-,-,-,-,-,-,-,-,-,-,-,-,-,-,-,-,-,-,-,-,-,-,-,-,-,-,-,-,-,-,-,-,-,-,-,-,-,-,-,-,-,-
2025-05-06 16:55:18.366,CollisionTime,Unknown,0,Unknown,True,0,-,9,-,-,-,-,-,-,-,-,-,2.449,-,-,-,-,-,-,-,-,-,-,-,-,-,-,-,-,-,-,-,-,-,-,-,-,-,-,-,-,-,-,-,-,-,-,-,-,-,-,-,-,-,-,-,-,-
2025-05-06 16:55:18.367,MovementDuration,Unknown,0,Unknown,-,-,-,9,-,-,-,-,Success,-,-,-,-,2.449,-,-,-,-,-,-,-,-,-,-,-,-,-,-,-,-,-,-,-,-,-,-,-,-,-,-,-,-,-,-,-,-,-,-,-,-,-,-,-,-,-,-,-,-,-
2025-05-06 16:55:18.369,DecisionOutcome,Unknown,0,Unknown,True,0,Practice_HighLowRatio,9,2,3,Work,2.143,Success,True,10,0,0,2.449,-,-,-,-,-,-,-,-,-,15,2.006:right|2.157:right|2.302:right|2.458:right|2.635:right|2.813:right|2.999:right|3.186:right|3.372:right|3.572:right|3.759:right|3.923:right|4.089:right|4.242:right|4.430:right,0.163,False,0.1,-,-,0.00,0.00,0,0,-,-,-,-,-,-,-,-,-,-,-,-,-,-,-,-,-,-,-,-,-,-,-,-,-
2025-05-06 16:55:18.369,MovementComplete,Unknown,0,Unknown,-,-,-,9,-,-,-,-,-,True,-,-,-,-,-,-,-,-,-,-,-,-,-,-,-,-,-,-,-,-,-,-,-,-,-,-,-,-,-,-,-,-,-,-,-,-,-,-,-,-,-,-,-,-,-,-,-,-,-
2025-05-06 16:55:18.370,RewardCollected,Unknown,0,Unknown,-,-,-,9,-,-,-,-,-,-,-,-,-,-,-,-,-,-,-,-,-,-,-,-,-,-,-,-,-,-,-,-,-,-,-,-,-,-,-,-,-,-,-,-,-,-,-,-,-,-,-,-,-,-,-,-,-,-,-
2025-05-06 16:55:18.370,OutcomeType,Unknown,0,Unknown,-,-,-,9,-,-,-,-,Success,-,-,-,-,-,-,-,-,-,-,-,-,-,-,-,-,-,-,-,-,-,-,-,-,-,-,-,-,-,-,-,-,-,-,-,-,-,-,-,-,-,-,-,-,-,-,-,-,-,-
2025-05-06 16:55:18.370,RewardCollected,Unknown,0,Unknown,-,-,-,9,-,-,-,-,-,-,-,-,-,-,-,-,-,-,-,-,-,-,-,-,-,-,-,-,-,-,-,-,-,-,-,-,-,-,-,-,-,-,-,-,-,-,-,-,-,-,-,-,-,-,-,-,-,-,-
2025-05-06 16:55:18.371,ButtonPresses,Unknown,0,Unknown,-,-,-,9,-,-,-,-,-,-,-,-,-,-,-,-,-,-,-,-,-,-,-,15,2.006:right|2.157:right|2.302:right|2.458:right|2.635:right|2.813:right|2.999:right|3.186:right|3.372:right|3.572:right|3.759:right|3.923:right|4.089:right|4.242:right|4.430:right,-,-,-,-,-,-,-,-,-,-,-,-,-,-,-,-,-,-,-,-,-,-,-,-,-,-,-,-,-,-,-,-,-,-
2025-05-06 16:55:18.440,MovementStep,Unknown,0,Unknown,-,0,Practice_HighLowRatio,9,2,3,-,-,Success,-,-,-,-,-,219.194,219.636,0.442,True,3,-3.50,2.50,-2.50,2.50,-,-,0.147,False,-,-,-,-,-,-,-,-,-,-,-,-,-,-,-,-,-,-,-,-,-,-,-,-,-,-,-,-,-,-,-,-
2025-05-06 16:55:20.050,InfoMessage,Unknown,0,Unknown,-,-,-,-,-,-,-,-,-,-,-,-,-,-,-,-,-,-,-,-,-,-,-,-,-,-,-,-,-,-,-,-,-,-,-,-,-,-,-,-,-,-,-,-,-,-,-,-,-,-,-,-,-,-,-,-,-,-,-
2025-05-06 16:55:22.250,PracticeTrialStart,Unknown,0,Unknown,True,0,-,10,-,-,-,-,-,-,-,-,-,-,-,-,-,-,-,-,-,-,-,-,-,-,-,-,-,-,-,-,-,-,-,-,-,-,-,-,-,-,-,-,-,-,-,-,-,-,-,-,-,-,-,-,-,-,-
2025-05-06 16:55:22.890,MovementStart,Unknown,0,Unknown,-,0,-,10,-,-,-,-,-,-,-,-,-,-,-,-,-,-,-,4.50,-1.50,-,-,-,-,-,-,-,-,-,-,-,-,-,-,-,-,-,-,-,-,-,-,-,-,-,-,-,-,-,-,-,-,-,-,-,-,-,-
2025-05-06 16:55:22.991,MovementStep,Unknown,0,Unknown,-,0,Practice_HighLowRatio,10,1,1,-,-,Pending,-,-,-,-,-,223.645,223.745,0.100,True,1,4.50,-1.50,3.50,-1.50,-,-,0.100,False,-,-,-,-,-,-,-,-,-,-,-,-,-,-,-,-,-,-,-,-,-,-,-,-,-,-,-,-,-,-,-,-
2025-05-06 16:55:23.090,MovementStart,Unknown,0,Unknown,-,0,-,10,-,-,-,-,-,-,-,-,-,-,-,-,-,-,-,3.50,-1.50,-,-,-,-,-,-,-,-,-,-,-,-,-,-,-,-,-,-,-,-,-,-,-,-,-,-,-,-,-,-,-,-,-,-,-,-,-,-
2025-05-06 16:55:23.190,MovementStep,Unknown,0,Unknown,-,0,Practice_HighLowRatio,10,1,1,-,-,Pending,-,-,-,-,-,223.845,223.944,0.100,True,1,3.50,-1.50,2.50,-1.50,-,-,0.100,True,-,-,-,-,-,-,-,-,-,-,-,-,-,-,-,-,-,-,-,-,-,-,-,-,-,-,-,-,-,-,-,-
2025-05-06 16:55:23.273,MovementStart,Unknown,0,Unknown,-,0,-,10,-,-,-,-,-,-,-,-,-,-,-,-,-,-,-,2.50,-1.50,-,-,-,-,-,-,-,-,-,-,-,-,-,-,-,-,-,-,-,-,-,-,-,-,-,-,-,-,-,-,-,-,-,-,-,-,-,-
2025-05-06 16:55:23.373,MovementStep,Unknown,0,Unknown,-,0,Practice_HighLowRatio,10,1,1,-,-,Pending,-,-,-,-,-,224.028,224.127,0.099,True,1,2.50,-1.50,1.50,-1.50,-,-,0.099,True,-,-,-,-,-,-,-,-,-,-,-,-,-,-,-,-,-,-,-,-,-,-,-,-,-,-,-,-,-,-,-,-
2025-05-06 16:55:23.462,MovementStart,Unknown,0,Unknown,-,0,-,10,-,-,-,-,-,-,-,-,-,-,-,-,-,-,-,1.50,-1.50,-,-,-,-,-,-,-,-,-,-,-,-,-,-,-,-,-,-,-,-,-,-,-,-,-,-,-,-,-,-,-,-,-,-,-,-,-,-
2025-05-06 16:55:23.561,MovementStep,Unknown,0,Unknown,-,0,Practice_HighLowRatio,10,1,1,-,-,Pending,-,-,-,-,-,224.216,224.316,0.100,True,1,1.50,-1.50,0.50,-1.50,-,-,0.100,True,-,-,-,-,-,-,-,-,-,-,-,-,-,-,-,-,-,-,-,-,-,-,-,-,-,-,-,-,-,-,-,-
2025-05-06 16:55:23.636,MovementStart,Unknown,0,Unknown,-,0,-,10,-,-,-,-,-,-,-,-,-,-,-,-,-,-,-,0.50,-1.50,-,-,-,-,-,-,-,-,-,-,-,-,-,-,-,-,-,-,-,-,-,-,-,-,-,-,-,-,-,-,-,-,-,-,-,-,-,-
2025-05-06 16:55:23.667,ScoreUpdate,Unknown,0,Unknown,True,0,-,10,-,-,-,-,-,-,10,0,80,-,-,-,-,-,-,-,-,-,-,-,-,-,-,-,-,-,-,-,-,-,-,-,-,-,-,-,-,-,-,-,-,-,-,-,-,-,-,-,-,-,-,-,-,-,-
2025-05-06 16:55:23.667,CollisionTime,Unknown,0,Unknown,True,0,-,10,-,-,-,-,-,-,-,-,-,0.775,-,-,-,-,-,-,-,-,-,-,-,-,-,-,-,-,-,-,-,-,-,-,-,-,-,-,-,-,-,-,-,-,-,-,-,-,-,-,-,-,-,-,-,-,-
2025-05-06 16:55:23.668,MovementDuration,Unknown,0,Unknown,-,-,-,10,-,-,-,-,Success,-,-,-,-,0.775,-,-,-,-,-,-,-,-,-,-,-,-,-,-,-,-,-,-,-,-,-,-,-,-,-,-,-,-,-,-,-,-,-,-,-,-,-,-,-,-,-,-,-,-,-
2025-05-06 16:55:23.670,DecisionOutcome,Unknown,0,Unknown,True,0,Practice_HighLowRatio,10,1,1,Work,0.795,Success,True,10,0,0,0.775,-,-,-,-,-,-,-,-,-,5,0.533:left|0.733:left|0.916:left|1.104:left|1.278:left,0.155,False,0.1,-,-,0.00,0.00,0,0,-,-,-,-,-,-,-,-,-,-,-,-,-,-,-,-,-,-,-,-,-,-,-,-,-
2025-05-06 16:55:23.671,MovementComplete,Unknown,0,Unknown,-,-,-,10,-,-,-,-,-,True,-,-,-,-,-,-,-,-,-,-,-,-,-,-,-,-,-,-,-,-,-,-,-,-,-,-,-,-,-,-,-,-,-,-,-,-,-,-,-,-,-,-,-,-,-,-,-,-,-
2025-05-06 16:55:23.671,RewardCollected,Unknown,0,Unknown,-,-,-,10,-,-,-,-,-,-,-,-,-,-,-,-,-,-,-,-,-,-,-,-,-,-,-,-,-,-,-,-,-,-,-,-,-,-,-,-,-,-,-,-,-,-,-,-,-,-,-,-,-,-,-,-,-,-,-
2025-05-06 16:55:23.671,OutcomeType,Unknown,0,Unknown,-,-,-,10,-,-,-,-,Success,-,-,-,-,-,-,-,-,-,-,-,-,-,-,-,-,-,-,-,-,-,-,-,-,-,-,-,-,-,-,-,-,-,-,-,-,-,-,-,-,-,-,-,-,-,-,-,-,-,-
2025-05-06 16:55:23.672,RewardCollected,Unknown,0,Unknown,-,-,-,10,-,-,-,-,-,-,-,-,-,-,-,-,-,-,-,-,-,-,-,-,-,-,-,-,-,-,-,-,-,-,-,-,-,-,-,-,-,-,-,-,-,-,-,-,-,-,-,-,-,-,-,-,-,-,-
2025-05-06 16:55:23.672,ButtonPresses,Unknown,0,Unknown,-,-,-,10,-,-,-,-,-,-,-,-,-,-,-,-,-,-,-,-,-,-,-,5,0.533:left|0.733:left|0.916:left|1.104:left|1.278:left,-,-,-,-,-,-,-,-,-,-,-,-,-,-,-,-,-,-,-,-,-,-,-,-,-,-,-,-,-,-,-,-,-,-
2025-05-06 16:55:23.736,MovementStep,Unknown,0,Unknown,-,0,Practice_HighLowRatio,10,1,1,-,-,Success,-,-,-,-,-,224.390,224.491,0.100,True,1,0.50,-1.50,-0.50,-1.50,-,-,0.100,False,-,-,-,-,-,-,-,-,-,-,-,-,-,-,-,-,-,-,-,-,-,-,-,-,-,-,-,-,-,-,-,-
2025-05-06 16:55:28.503,InfoMessage,Unknown,0,Unknown,-,-,-,-,-,-,-,-,-,-,-,-,-,-,-,-,-,-,-,-,-,-,-,-,-,-,-,-,-,-,-,-,-,-,-,-,-,-,-,-,-,-,-,-,-,-,-,-,-,-,-,-,-,-,-,-,-,-,-
2025-05-06 16:55:30.394,PracticeTrialStart,Unknown,0,Unknown,True,0,-,11,-,-,-,-,-,-,-,-,-,-,-,-,-,-,-,-,-,-,-,-,-,-,-,-,-,-,-,-,-,-,-,-,-,-,-,-,-,-,-,-,-,-,-,-,-,-,-,-,-,-,-,-,-,-,-
2025-05-06 16:55:31.153,MovementStart,Unknown,0,Unknown,-,0,-,11,-,-,-,-,-,-,-,-,-,-,-,-,-,-,-,6.50,-3.50,-,-,-,-,-,-,-,-,-,-,-,-,-,-,-,-,-,-,-,-,-,-,-,-,-,-,-,-,-,-,-,-,-,-,-,-,-,-
2025-05-06 16:55:31.253,MovementStep,Unknown,0,Unknown,-,0,Practice_HighLowRatio,11,1,1,-,-,Pending,-,-,-,-,-,231.461,231.561,0.100,True,1,6.50,-3.50,5.50,-3.50,-,-,0.100,True,-,-,-,-,-,-,-,-,-,-,-,-,-,-,-,-,-,-,-,-,-,-,-,-,-,-,-,-,-,-,-,-
2025-05-06 16:55:31.381,MovementStart,Unknown,0,Unknown,-,0,-,11,-,-,-,-,-,-,-,-,-,-,-,-,-,-,-,5.50,-3.50,-,-,-,-,-,-,-,-,-,-,-,-,-,-,-,-,-,-,-,-,-,-,-,-,-,-,-,-,-,-,-,-,-,-,-,-,-,-
2025-05-06 16:55:31.481,MovementStep,Unknown,0,Unknown,-,0,Practice_HighLowRatio,11,1,1,-,-,Pending,-,-,-,-,-,231.689,231.789,0.100,True,1,5.50,-3.50,4.50,-3.50,-,-,0.100,False,-,-,-,-,-,-,-,-,-,-,-,-,-,-,-,-,-,-,-,-,-,-,-,-,-,-,-,-,-,-,-,-
2025-05-06 16:55:31.553,MovementStart,Unknown,0,Unknown,-,0,-,11,-,-,-,-,-,-,-,-,-,-,-,-,-,-,-,4.50,-3.50,-,-,-,-,-,-,-,-,-,-,-,-,-,-,-,-,-,-,-,-,-,-,-,-,-,-,-,-,-,-,-,-,-,-,-,-,-,-
2025-05-06 16:55:31.653,MovementStep,Unknown,0,Unknown,-,0,Practice_HighLowRatio,11,1,1,-,-,Pending,-,-,-,-,-,231.861,231.960,0.100,True,1,4.50,-3.50,3.50,-3.50,-,-,0.100,True,-,-,-,-,-,-,-,-,-,-,-,-,-,-,-,-,-,-,-,-,-,-,-,-,-,-,-,-,-,-,-,-
2025-05-06 16:55:31.943,MovementStart,Unknown,0,Unknown,-,0,-,11,-,-,-,-,-,-,-,-,-,-,-,-,-,-,-,3.50,-3.50,-,-,-,-,-,-,-,-,-,-,-,-,-,-,-,-,-,-,-,-,-,-,-,-,-,-,-,-,-,-,-,-,-,-,-,-,-,-
2025-05-06 16:55:32.043,MovementStep,Unknown,0,Unknown,-,0,Practice_HighLowRatio,11,1,1,-,-,Pending,-,-,-,-,-,232.251,232.350,0.099,True,1,3.50,-3.50,2.50,-3.50,-,-,0.099,True,-,-,-,-,-,-,-,-,-,-,-,-,-,-,-,-,-,-,-,-,-,-,-,-,-,-,-,-,-,-,-,-
2025-05-06 16:55:32.218,MovementStart,Unknown,0,Unknown,-,0,-,11,-,-,-,-,-,-,-,-,-,-,-,-,-,-,-,2.50,-3.50,-,-,-,-,-,-,-,-,-,-,-,-,-,-,-,-,-,-,-,-,-,-,-,-,-,-,-,-,-,-,-,-,-,-,-,-,-,-
2025-05-06 16:55:32.234,ScoreUpdate,Unknown,0,Unknown,True,0,-,11,-,-,-,-,-,-,10,0,90,-,-,-,-,-,-,-,-,-,-,-,-,-,-,-,-,-,-,-,-,-,-,-,-,-,-,-,-,-,-,-,-,-,-,-,-,-,-,-,-,-,-,-,-,-,-
2025-05-06 16:55:32.234,CollisionTime,Unknown,0,Unknown,True,0,-,11,-,-,-,-,-,-,-,-,-,1.079,-,-,-,-,-,-,-,-,-,-,-,-,-,-,-,-,-,-,-,-,-,-,-,-,-,-,-,-,-,-,-,-,-,-,-,-,-,-,-,-,-,-,-,-,-
2025-05-06 16:55:32.235,MovementDuration,Unknown,0,Unknown,-,-,-,11,-,-,-,-,Success,-,-,-,-,1.079,-,-,-,-,-,-,-,-,-,-,-,-,-,-,-,-,-,-,-,-,-,-,-,-,-,-,-,-,-,-,-,-,-,-,-,-,-,-,-,-,-,-,-,-,-
2025-05-06 16:55:32.237,DecisionOutcome,Unknown,0,Unknown,True,0,Practice_HighLowRatio,11,1,1,Work,0.486,Success,True,10,0,0,1.079,-,-,-,-,-,-,-,-,-,5,0.651:left|0.879:left|1.051:left|1.442:left|1.716:left,0.216,False,0.1,-,-,0.00,0.00,0,0,-,-,-,-,-,-,-,-,-,-,-,-,-,-,-,-,-,-,-,-,-,-,-,-,-
2025-05-06 16:55:32.237,MovementComplete,Unknown,0,Unknown,-,-,-,11,-,-,-,-,-,True,-,-,-,-,-,-,-,-,-,-,-,-,-,-,-,-,-,-,-,-,-,-,-,-,-,-,-,-,-,-,-,-,-,-,-,-,-,-,-,-,-,-,-,-,-,-,-,-,-
2025-05-06 16:55:32.238,RewardCollected,Unknown,0,Unknown,-,-,-,11,-,-,-,-,-,-,-,-,-,-,-,-,-,-,-,-,-,-,-,-,-,-,-,-,-,-,-,-,-,-,-,-,-,-,-,-,-,-,-,-,-,-,-,-,-,-,-,-,-,-,-,-,-,-,-
2025-05-06 16:55:32.238,OutcomeType,Unknown,0,Unknown,-,-,-,11,-,-,-,-,Success,-,-,-,-,-,-,-,-,-,-,-,-,-,-,-,-,-,-,-,-,-,-,-,-,-,-,-,-,-,-,-,-,-,-,-,-,-,-,-,-,-,-,-,-,-,-,-,-,-,-
2025-05-06 16:55:32.238,RewardCollected,Unknown,0,Unknown,-,-,-,11,-,-,-,-,-,-,-,-,-,-,-,-,-,-,-,-,-,-,-,-,-,-,-,-,-,-,-,-,-,-,-,-,-,-,-,-,-,-,-,-,-,-,-,-,-,-,-,-,-,-,-,-,-,-,-
2025-05-06 16:55:32.239,ButtonPresses,Unknown,0,Unknown,-,-,-,11,-,-,-,-,-,-,-,-,-,-,-,-,-,-,-,-,-,-,-,5,0.651:left|0.879:left|1.051:left|1.442:left|1.716:left,-,-,-,-,-,-,-,-,-,-,-,-,-,-,-,-,-,-,-,-,-,-,-,-,-,-,-,-,-,-,-,-,-,-
2025-05-06 16:55:32.318,MovementStep,Unknown,0,Unknown,-,0,Practice_HighLowRatio,11,1,1,-,-,Success,-,-,-,-,-,232.526,232.626,0.100,True,1,2.50,-3.50,1.50,-3.50,-,-,0.100,False,-,-,-,-,-,-,-,-,-,-,-,-,-,-,-,-,-,-,-,-,-,-,-,-,-,-,-,-,-,-,-,-
2025-05-06 16:55:36.648,InfoMessage,Unknown,0,Unknown,-,-,-,-,-,-,-,-,-,-,-,-,-,-,-,-,-,-,-,-,-,-,-,-,-,-,-,-,-,-,-,-,-,-,-,-,-,-,-,-,-,-,-,-,-,-,-,-,-,-,-,-,-,-,-,-,-,-,-
2025-05-06 16:55:38.765,PracticeTrialStart,Unknown,0,Unknown,True,0,-,12,-,-,-,-,-,-,-,-,-,-,-,-,-,-,-,-,-,-,-,-,-,-,-,-,-,-,-,-,-,-,-,-,-,-,-,-,-,-,-,-,-,-,-,-,-,-,-,-,-,-,-,-,-,-,-
2025-05-06 16:55:40.103,MovementStart,Unknown,0,Unknown,-,0,-,12,-,-,-,-,-,-,-,-,-,-,-,-,-,-,-,-4.50,-2.50,-,-,-,-,-,-,-,-,-,-,-,-,-,-,-,-,-,-,-,-,-,-,-,-,-,-,-,-,-,-,-,-,-,-,-,-,-,-
2025-05-06 16:55:40.204,MovementStep,Unknown,0,Unknown,-,0,Practice_HighLowRatio,12,2,3,-,-,Pending,-,-,-,-,-,239.585,240.060,0.475,True,3,-4.50,-2.50,-3.50,-2.50,-,-,0.158,False,-,-,-,-,-,-,-,-,-,-,-,-,-,-,-,-,-,-,-,-,-,-,-,-,-,-,-,-,-,-,-,-
2025-05-06 16:55:40.571,MovementStart,Unknown,0,Unknown,-,0,-,12,-,-,-,-,-,-,-,-,-,-,-,-,-,-,-,-3.50,-2.50,-,-,-,-,-,-,-,-,-,-,-,-,-,-,-,-,-,-,-,-,-,-,-,-,-,-,-,-,-,-,-,-,-,-,-,-,-,-
2025-05-06 16:55:40.671,MovementStep,Unknown,0,Unknown,-,0,Practice_HighLowRatio,12,2,3,-,-,Pending,-,-,-,-,-,240.122,240.527,0.405,True,3,-3.50,-2.50,-2.50,-2.50,-,-,0.135,False,-,-,-,-,-,-,-,-,-,-,-,-,-,-,-,-,-,-,-,-,-,-,-,-,-,-,-,-,-,-,-,-
2025-05-06 16:55:41.058,MovementStart,Unknown,0,Unknown,-,0,-,12,-,-,-,-,-,-,-,-,-,-,-,-,-,-,-,-2.50,-2.50,-,-,-,-,-,-,-,-,-,-,-,-,-,-,-,-,-,-,-,-,-,-,-,-,-,-,-,-,-,-,-,-,-,-,-,-,-,-
2025-05-06 16:55:41.158,MovementStep,Unknown,0,Unknown,-,0,Practice_HighLowRatio,12,2,3,-,-,Pending,-,-,-,-,-,240.592,241.015,0.423,True,3,-2.50,-2.50,-1.50,-2.50,-,-,0.141,False,-,-,-,-,-,-,-,-,-,-,-,-,-,-,-,-,-,-,-,-,-,-,-,-,-,-,-,-,-,-,-,-
2025-05-06 16:55:41.586,MovementStart,Unknown,0,Unknown,-,0,-,12,-,-,-,-,-,-,-,-,-,-,-,-,-,-,-,-1.50,-2.50,-,-,-,-,-,-,-,-,-,-,-,-,-,-,-,-,-,-,-,-,-,-,-,-,-,-,-,-,-,-,-,-,-,-,-,-,-,-
2025-05-06 16:55:41.687,MovementStep,Unknown,0,Unknown,-,0,Practice_HighLowRatio,12,2,3,-,-,Pending,-,-,-,-,-,241.087,241.543,0.456,True,3,-1.50,-2.50,-0.50,-2.50,-,-,0.152,False,-,-,-,-,-,-,-,-,-,-,-,-,-,-,-,-,-,-,-,-,-,-,-,-,-,-,-,-,-,-,-,-
2025-05-06 16:55:42.062,MovementStart,Unknown,0,Unknown,-,0,-,12,-,-,-,-,-,-,-,-,-,-,-,-,-,-,-,-0.50,-2.50,-,-,-,-,-,-,-,-,-,-,-,-,-,-,-,-,-,-,-,-,-,-,-,-,-,-,-,-,-,-,-,-,-,-,-,-,-,-
2025-05-06 16:55:42.085,ScoreUpdate,Unknown,0,Unknown,True,0,-,12,-,-,-,-,-,-,10,0,100,-,-,-,-,-,-,-,-,-,-,-,-,-,-,-,-,-,-,-,-,-,-,-,-,-,-,-,-,-,-,-,-,-,-,-,-,-,-,-,-,-,-,-,-,-,-
2025-05-06 16:55:42.086,CollisionTime,Unknown,0,Unknown,True,0,-,12,-,-,-,-,-,-,-,-,-,2.355,-,-,-,-,-,-,-,-,-,-,-,-,-,-,-,-,-,-,-,-,-,-,-,-,-,-,-,-,-,-,-,-,-,-,-,-,-,-,-,-,-,-,-,-,-
2025-05-06 16:55:42.087,MovementDuration,Unknown,0,Unknown,-,-,-,12,-,-,-,-,Success,-,-,-,-,2.355,-,-,-,-,-,-,-,-,-,-,-,-,-,-,-,-,-,-,-,-,-,-,-,-,-,-,-,-,-,-,-,-,-,-,-,-,-,-,-,-,-,-,-,-,-
2025-05-06 16:55:42.089,DecisionOutcome,Unknown,0,Unknown,True,0,Practice_HighLowRatio,12,2,3,Work,0.705,Success,True,10,0,0,2.355,-,-,-,-,-,-,-,-,-,15,0.856:right|1.055:right|1.230:right|1.392:right|1.542:right|1.697:right|1.862:right|2.029:right|2.185:right|2.357:right|2.518:right|2.713:right|2.852:right|3.025:right|3.188:right,0.157,False,0.1,-,-,0.00,0.00,0,0,-,-,-,-,-,-,-,-,-,-,-,-,-,-,-,-,-,-,-,-,-,-,-,-,-
2025-05-06 16:55:42.089,MovementComplete,Unknown,0,Unknown,-,-,-,12,-,-,-,-,-,True,-,-,-,-,-,-,-,-,-,-,-,-,-,-,-,-,-,-,-,-,-,-,-,-,-,-,-,-,-,-,-,-,-,-,-,-,-,-,-,-,-,-,-,-,-,-,-,-,-
2025-05-06 16:55:42.090,RewardCollected,Unknown,0,Unknown,-,-,-,12,-,-,-,-,-,-,-,-,-,-,-,-,-,-,-,-,-,-,-,-,-,-,-,-,-,-,-,-,-,-,-,-,-,-,-,-,-,-,-,-,-,-,-,-,-,-,-,-,-,-,-,-,-,-,-
2025-05-06 16:55:42.090,OutcomeType,Unknown,0,Unknown,-,-,-,12,-,-,-,-,Success,-,-,-,-,-,-,-,-,-,-,-,-,-,-,-,-,-,-,-,-,-,-,-,-,-,-,-,-,-,-,-,-,-,-,-,-,-,-,-,-,-,-,-,-,-,-,-,-,-,-
2025-05-06 16:55:42.091,RewardCollected,Unknown,0,Unknown,-,-,-,12,-,-,-,-,-,-,-,-,-,-,-,-,-,-,-,-,-,-,-,-,-,-,-,-,-,-,-,-,-,-,-,-,-,-,-,-,-,-,-,-,-,-,-,-,-,-,-,-,-,-,-,-,-,-,-
2025-05-06 16:55:42.091,ButtonPresses,Unknown,0,Unknown,-,-,-,12,-,-,-,-,-,-,-,-,-,-,-,-,-,-,-,-,-,-,-,15,0.856:right|1.055:right|1.230:right|1.392:right|1.542:right|1.697:right|1.862:right|2.029:right|2.185:right|2.357:right|2.518:right|2.713:right|2.852:right|3.025:right|3.188:right,-,-,-,-,-,-,-,-,-,-,-,-,-,-,-,-,-,-,-,-,-,-,-,-,-,-,-,-,-,-,-,-,-,-
2025-05-06 16:55:42.162,MovementStep,Unknown,0,Unknown,-,0,Practice_HighLowRatio,12,2,3,-,-,Success,-,-,-,-,-,241.582,242.018,0.436,True,3,-0.50,-2.50,0.50,-2.50,-,-,0.145,False,-,-,-,-,-,-,-,-,-,-,-,-,-,-,-,-,-,-,-,-,-,-,-,-,-,-,-,-,-,-,-,-
2025-05-06 16:55:45.024,InfoMessage,Unknown,0,Unknown,-,-,-,-,-,-,-,-,-,-,-,-,-,-,-,-,-,-,-,-,-,-,-,-,-,-,-,-,-,-,-,-,-,-,-,-,-,-,-,-,-,-,-,-,-,-,-,-,-,-,-,-,-,-,-,-,-,-,-
2025-05-06 16:55:47.009,PracticeTrialStart,Unknown,0,Unknown,True,0,-,13,-,-,-,-,-,-,-,-,-,-,-,-,-,-,-,-,-,-,-,-,-,-,-,-,-,-,-,-,-,-,-,-,-,-,-,-,-,-,-,-,-,-,-,-,-,-,-,-,-,-,-,-,-,-,-
2025-05-06 16:55:49.112,MovementStart,Unknown,0,Unknown,-,0,-,13,-,-,-,-,-,-,-,-,-,-,-,-,-,-,-,2.50,1.50,-,-,-,-,-,-,-,-,-,-,-,-,-,-,-,-,-,-,-,-,-,-,-,-,-,-,-,-,-,-,-,-,-,-,-,-,-,-
2025-05-06 16:55:49.213,MovementStep,Unknown,0,Unknown,-,0,Practice_HighLowRatio,13,3,5,-,-,Pending,-,-,-,-,-,247.814,248.619,0.806,True,5,2.50,1.50,3.50,1.50,-,-,0.161,False,-,-,-,-,-,-,-,-,-,-,-,-,-,-,-,-,-,-,-,-,-,-,-,-,-,-,-,-,-,-,-,-
2025-05-06 16:55:50.641,MovementStart,Unknown,0,Unknown,-,0,-,13,-,-,-,-,-,-,-,-,-,-,-,-,-,-,-,3.50,1.50,-,-,-,-,-,-,-,-,-,-,-,-,-,-,-,-,-,-,-,-,-,-,-,-,-,-,-,-,-,-,-,-,-,-,-,-,-,-
2025-05-06 16:55:50.741,MovementStep,Unknown,0,Unknown,-,0,Practice_HighLowRatio,13,3,5,-,-,Pending,-,-,-,-,-,248.679,250.148,1.468,True,5,3.50,1.50,4.50,1.50,-,-,0.294,False,-,-,-,-,-,-,-,-,-,-,-,-,-,-,-,-,-,-,-,-,-,-,-,-,-,-,-,-,-,-,-,-
2025-05-06 16:55:51.495,MovementStart,Unknown,0,Unknown,-,0,-,13,-,-,-,-,-,-,-,-,-,-,-,-,-,-,-,4.50,1.50,-,-,-,-,-,-,-,-,-,-,-,-,-,-,-,-,-,-,-,-,-,-,-,-,-,-,-,-,-,-,-,-,-,-,-,-,-,-
2025-05-06 16:55:51.595,MovementStep,Unknown,0,Unknown,-,0,Practice_HighLowRatio,13,3,5,-,-,Pending,-,-,-,-,-,250.222,251.002,0.780,True,5,4.50,1.50,5.50,1.50,-,-,0.156,False,-,-,-,-,-,-,-,-,-,-,-,-,-,-,-,-,-,-,-,-,-,-,-,-,-,-,-,-,-,-,-,-
2025-05-06 16:55:52.097,MovementDuration,Unknown,0,Unknown,-,-,-,13,-,-,-,-,Failure,-,-,-,-,3.690,-,-,-,-,-,-,-,-,-,-,-,-,-,-,-,-,-,-,-,-,-,-,-,-,-,-,-,-,-,-,-,-,-,-,-,-,-,-,-,-,-,-,-,-,-
2025-05-06 16:55:52.098,OutcomeType,Unknown,0,Unknown,-,-,-,13,-,-,-,-,Failure,-,-,-,-,-,-,-,-,-,-,-,-,-,-,-,-,-,-,-,-,-,-,-,-,-,-,-,-,-,-,-,-,-,-,-,-,-,-,-,-,-,-,-,-,-,-,-,-,-,-
2025-05-06 16:55:52.098,RewardCollected,Unknown,0,Unknown,-,-,-,13,-,-,-,-,-,-,-,-,-,-,-,-,-,-,-,-,-,-,-,-,-,-,-,-,-,-,-,-,-,-,-,-,-,-,-,-,-,-,-,-,-,-,-,-,-,-,-,-,-,-,-,-,-,-,-
2025-05-06 16:55:52.099,ButtonPresses,Unknown,0,Unknown,-,-,-,13,-,-,-,-,-,-,-,-,-,-,-,-,-,-,-,-,-,-,-,18,1.290:right|1.506:right|1.669:right|1.831:right|1.995:right|2.156:right|2.320:right|3.165:right|3.357:right|3.524:right|3.699:right|3.858:right|4.026:right|4.201:right|4.379:right|4.544:right|4.725:right|4.901:right,-,-,-,-,-,-,-,-,-,-,-,-,-,-,-,-,-,-,-,-,-,-,-,-,-,-,-,-,-,-,-,-,-,-
2025-05-06 16:55:52.101,DecisionOutcome,Unknown,0,Unknown,True,0,Practice_HighLowRatio,13,3,5,Work,0.582,Failure,False,0,0,0,3.690,-,-,-,-,-,-,-,-,-,18,1.290:right|1.506:right|1.669:right|1.831:right|1.995:right|2.156:right|2.320:right|3.165:right|3.357:right|3.524:right|3.699:right|3.858:right|4.026:right|4.201:right|4.379:right|4.544:right|4.725:right|4.901:right,0.205,False,0.1,-,-,0.00,0.00,0,0,-,-,-,-,-,-,-,-,-,-,-,-,-,-,-,-,-,-,-,-,-,-,-,-,-
2025-05-06 16:55:52.101,ButtonPresses,Unknown,0,Unknown,-,-,-,13,-,-,-,-,-,-,-,-,-,-,-,-,-,-,-,-,-,-,-,18,1.290:right|1.506:right|1.669:right|1.831:right|1.995:right|2.156:right|2.320:right|3.165:right|3.357:right|3.524:right|3.699:right|3.858:right|4.026:right|4.201:right|4.379:right|4.544:right|4.725:right|4.901:right,-,-,-,-,-,-,-,-,-,-,-,-,-,-,-,-,-,-,-,-,-,-,-,-,-,-,-,-,-,-,-,-,-,-
2025-05-06 16:55:52.102,MovementComplete,Unknown,0,Unknown,-,-,-,13,-,-,-,-,-,False,-,-,-,-,-,-,-,-,-,-,-,-,-,-,-,-,-,-,-,-,-,-,-,-,-,-,-,-,-,-,-,-,-,-,-,-,-,-,-,-,-,-,-,-,-,-,-,-,-
2025-05-06 16:55:52.102,RewardCollected,Unknown,0,Unknown,-,-,-,13,-,-,-,-,-,-,-,-,-,-,-,-,-,-,-,-,-,-,-,-,-,-,-,-,-,-,-,-,-,-,-,-,-,-,-,-,-,-,-,-,-,-,-,-,-,-,-,-,-,-,-,-,-,-,-
2025-05-06 16:55:53.266,InfoMessage,Unknown,0,Unknown,-,-,-,-,-,-,-,-,-,-,-,-,-,-,-,-,-,-,-,-,-,-,-,-,-,-,-,-,-,-,-,-,-,-,-,-,-,-,-,-,-,-,-,-,-,-,-,-,-,-,-,-,-,-,-,-,-,-,-
2025-05-06 16:55:55.199,PracticeTrialStart,Unknown,0,Unknown,True,0,-,14,-,-,-,-,-,-,-,-,-,-,-,-,-,-,-,-,-,-,-,-,-,-,-,-,-,-,-,-,-,-,-,-,-,-,-,-,-,-,-,-,-,-,-,-,-,-,-,-,-,-,-,-,-,-,-
2025-05-06 16:55:56.026,MovementStart,Unknown,0,Unknown,-,0,-,14,-,-,-,-,-,-,-,-,-,-,-,-,-,-,-,4.50,1.50,-,-,-,-,-,-,-,-,-,-,-,-,-,-,-,-,-,-,-,-,-,-,-,-,-,-,-,-,-,-,-,-,-,-,-,-,-,-
2025-05-06 16:55:56.126,MovementStep,Unknown,0,Unknown,-,0,Practice_HighLowRatio,14,1,1,-,-,Pending,-,-,-,-,-,254.982,255.083,0.100,True,1,4.50,1.50,3.50,1.50,-,-,0.100,False,-,-,-,-,-,-,-,-,-,-,-,-,-,-,-,-,-,-,-,-,-,-,-,-,-,-,-,-,-,-,-,-
2025-05-06 16:55:56.212,MovementStart,Unknown,0,Unknown,-,0,-,14,-,-,-,-,-,-,-,-,-,-,-,-,-,-,-,3.50,1.50,-,-,-,-,-,-,-,-,-,-,-,-,-,-,-,-,-,-,-,-,-,-,-,-,-,-,-,-,-,-,-,-,-,-,-,-,-,-
2025-05-06 16:55:56.311,MovementStep,Unknown,0,Unknown,-,0,Practice_HighLowRatio,14,1,1,-,-,Pending,-,-,-,-,-,255.168,255.268,0.099,True,1,3.50,1.50,2.50,1.50,-,-,0.099,True,-,-,-,-,-,-,-,-,-,-,-,-,-,-,-,-,-,-,-,-,-,-,-,-,-,-,-,-,-,-,-,-
2025-05-06 16:55:56.413,MovementStart,Unknown,0,Unknown,-,0,-,14,-,-,-,-,-,-,-,-,-,-,-,-,-,-,-,2.50,1.50,-,-,-,-,-,-,-,-,-,-,-,-,-,-,-,-,-,-,-,-,-,-,-,-,-,-,-,-,-,-,-,-,-,-,-,-,-,-
2025-05-06 16:55:56.512,MovementStep,Unknown,0,Unknown,-,0,Practice_HighLowRatio,14,1,1,-,-,Pending,-,-,-,-,-,255.369,255.468,0.099,True,1,2.50,1.50,1.50,1.50,-,-,0.099,True,-,-,-,-,-,-,-,-,-,-,-,-,-,-,-,-,-,-,-,-,-,-,-,-,-,-,-,-,-,-,-,-
2025-05-06 16:55:56.570,MovementStart,Unknown,0,Unknown,-,0,-,14,-,-,-,-,-,-,-,-,-,-,-,-,-,-,-,1.50,1.50,-,-,-,-,-,-,-,-,-,-,-,-,-,-,-,-,-,-,-,-,-,-,-,-,-,-,-,-,-,-,-,-,-,-,-,-,-,-
2025-05-06 16:55:56.670,MovementStep,Unknown,0,Unknown,-,0,Practice_HighLowRatio,14,1,1,-,-,Pending,-,-,-,-,-,255.527,255.626,0.100,True,1,1.50,1.50,0.50,1.50,-,-,0.100,True,-,-,-,-,-,-,-,-,-,-,-,-,-,-,-,-,-,-,-,-,-,-,-,-,-,-,-,-,-,-,-,-
2025-05-06 16:55:56.751,MovementStart,Unknown,0,Unknown,-,0,-,14,-,-,-,-,-,-,-,-,-,-,-,-,-,-,-,0.50,1.50,-,-,-,-,-,-,-,-,-,-,-,-,-,-,-,-,-,-,-,-,-,-,-,-,-,-,-,-,-,-,-,-,-,-,-,-,-,-
2025-05-06 16:55:56.765,ScoreUpdate,Unknown,0,Unknown,True,0,-,14,-,-,-,-,-,-,10,0,110,-,-,-,-,-,-,-,-,-,-,-,-,-,-,-,-,-,-,-,-,-,-,-,-,-,-,-,-,-,-,-,-,-,-,-,-,-,-,-,-,-,-,-,-,-,-
2025-05-06 16:55:56.766,CollisionTime,Unknown,0,Unknown,True,0,-,14,-,-,-,-,-,-,-,-,-,0.738,-,-,-,-,-,-,-,-,-,-,-,-,-,-,-,-,-,-,-,-,-,-,-,-,-,-,-,-,-,-,-,-,-,-,-,-,-,-,-,-,-,-,-,-,-
2025-05-06 16:55:56.766,MovementDuration,Unknown,0,Unknown,-,-,-,14,-,-,-,-,Success,-,-,-,-,0.738,-,-,-,-,-,-,-,-,-,-,-,-,-,-,-,-,-,-,-,-,-,-,-,-,-,-,-,-,-,-,-,-,-,-,-,-,-,-,-,-,-,-,-,-,-
2025-05-06 16:55:56.768,DecisionOutcome,Unknown,0,Unknown,True,0,Practice_HighLowRatio,14,1,1,Work,0.529,Success,True,10,0,0,0.738,-,-,-,-,-,-,-,-,-,5,0.717:left|0.903:left|1.103:left|1.261:left|1.442:left,0.148,False,0.1,-,-,0.00,0.00,0,0,-,-,-,-,-,-,-,-,-,-,-,-,-,-,-,-,-,-,-,-,-,-,-,-,-
2025-05-06 16:55:56.769,MovementComplete,Unknown,0,Unknown,-,-,-,14,-,-,-,-,-,True,-,-,-,-,-,-,-,-,-,-,-,-,-,-,-,-,-,-,-,-,-,-,-,-,-,-,-,-,-,-,-,-,-,-,-,-,-,-,-,-,-,-,-,-,-,-,-,-,-
2025-05-06 16:55:56.769,RewardCollected,Unknown,0,Unknown,-,-,-,14,-,-,-,-,-,-,-,-,-,-,-,-,-,-,-,-,-,-,-,-,-,-,-,-,-,-,-,-,-,-,-,-,-,-,-,-,-,-,-,-,-,-,-,-,-,-,-,-,-,-,-,-,-,-,-
2025-05-06 16:55:56.769,OutcomeType,Unknown,0,Unknown,-,-,-,14,-,-,-,-,Success,-,-,-,-,-,-,-,-,-,-,-,-,-,-,-,-,-,-,-,-,-,-,-,-,-,-,-,-,-,-,-,-,-,-,-,-,-,-,-,-,-,-,-,-,-,-,-,-,-,-
2025-05-06 16:55:56.770,RewardCollected,Unknown,0,Unknown,-,-,-,14,-,-,-,-,-,-,-,-,-,-,-,-,-,-,-,-,-,-,-,-,-,-,-,-,-,-,-,-,-,-,-,-,-,-,-,-,-,-,-,-,-,-,-,-,-,-,-,-,-,-,-,-,-,-,-
2025-05-06 16:55:56.770,ButtonPresses,Unknown,0,Unknown,-,-,-,14,-,-,-,-,-,-,-,-,-,-,-,-,-,-,-,-,-,-,-,5,0.717:left|0.903:left|1.103:left|1.261:left|1.442:left,-,-,-,-,-,-,-,-,-,-,-,-,-,-,-,-,-,-,-,-,-,-,-,-,-,-,-,-,-,-,-,-,-,-
2025-05-06 16:55:56.851,MovementStep,Unknown,0,Unknown,-,0,Practice_HighLowRatio,14,1,1,-,-,Success,-,-,-,-,-,255.708,255.808,0.100,True,1,0.50,1.50,-0.50,1.50,-,-,0.100,False,-,-,-,-,-,-,-,-,-,-,-,-,-,-,-,-,-,-,-,-,-,-,-,-,-,-,-,-,-,-,-,-
2025-05-06 16:56:01.452,InfoMessage,Unknown,0,Unknown,-,-,-,-,-,-,-,-,-,-,-,-,-,-,-,-,-,-,-,-,-,-,-,-,-,-,-,-,-,-,-,-,-,-,-,-,-,-,-,-,-,-,-,-,-,-,-,-,-,-,-,-,-,-,-,-,-,-,-
2025-05-06 16:56:02.119,DecisionOutcome,Unknown,0,Unknown,True,0,Practice_HighLowRatio,15,2,3,Skip,0.677,Skip,False,0,0,0,0.000,-,-,-,-,-,-,-,-,-,0,-,-1.000,False,0.1,Skip,3,0.00,0.00,0,0,-,-,-,-,-,-,-,-,-,-,-,-,-,-,-,-,-,-,-,-,-,-,-,-,-
2025-05-06 16:56:02.120,ScoreUpdate,Unknown,0,Unknown,True,0,-,15,-,-,-,-,-,-,0,0,110,-,-,-,-,-,-,-,-,-,-,-,-,-,-,-,-,-,-,-,-,-,-,-,-,-,-,-,-,-,-,-,-,-,-,-,-,-,-,-,-,-,-,-,-,-,-
2025-05-06 16:56:06.274,InfoMessage,Unknown,0,Unknown,-,-,-,-,-,-,-,-,-,-,-,-,-,-,-,-,-,-,-,-,-,-,-,-,-,-,-,-,-,-,-,-,-,-,-,-,-,-,-,-,-,-,-,-,-,-,-,-,-,-,-,-,-,-,-,-,-,-,-
2025-05-06 16:56:06.936,DecisionOutcome,Unknown,0,Unknown,True,0,Practice_HighLowRatio,16,1,1,Skip,0.675,Skip,False,0,0,0,0.000,-,-,-,-,-,-,-,-,-,0,-,-1.000,False,0.1,Skip,3,0.00,0.00,0,0,-,-,-,-,-,-,-,-,-,-,-,-,-,-,-,-,-,-,-,-,-,-,-,-,-
2025-05-06 16:56:06.937,ScoreUpdate,Unknown,0,Unknown,True,0,-,16,-,-,-,-,-,-,0,0,110,-,-,-,-,-,-,-,-,-,-,-,-,-,-,-,-,-,-,-,-,-,-,-,-,-,-,-,-,-,-,-,-,-,-,-,-,-,-,-,-,-,-,-,-,-,-
2025-05-06 16:56:11.134,InfoMessage,Unknown,0,Unknown,-,-,-,-,-,-,-,-,-,-,-,-,-,-,-,-,-,-,-,-,-,-,-,-,-,-,-,-,-,-,-,-,-,-,-,-,-,-,-,-,-,-,-,-,-,-,-,-,-,-,-,-,-,-,-,-,-,-,-
2025-05-06 16:56:13.082,PracticeTrialStart,Unknown,0,Unknown,True,0,-,17,-,-,-,-,-,-,-,-,-,-,-,-,-,-,-,-,-,-,-,-,-,-,-,-,-,-,-,-,-,-,-,-,-,-,-,-,-,-,-,-,-,-,-,-,-,-,-,-,-,-,-,-,-,-,-
2025-05-06 16:56:13.698,MovementStart,Unknown,0,Unknown,-,0,-,17,-,-,-,-,-,-,-,-,-,-,-,-,-,-,-,-4.50,1.50,-,-,-,-,-,-,-,-,-,-,-,-,-,-,-,-,-,-,-,-,-,-,-,-,-,-,-,-,-,-,-,-,-,-,-,-,-,-
2025-05-06 16:56:13.798,MovementStep,Unknown,0,Unknown,-,0,Practice_HighLowRatio,17,1,1,-,-,Pending,-,-,-,-,-,271.889,271.988,0.100,True,1,-4.50,1.50,-3.50,1.50,-,-,0.100,True,-,-,-,-,-,-,-,-,-,-,-,-,-,-,-,-,-,-,-,-,-,-,-,-,-,-,-,-,-,-,-,-
2025-05-06 16:56:13.876,MovementStart,Unknown,0,Unknown,-,0,-,17,-,-,-,-,-,-,-,-,-,-,-,-,-,-,-,-3.50,1.50,-,-,-,-,-,-,-,-,-,-,-,-,-,-,-,-,-,-,-,-,-,-,-,-,-,-,-,-,-,-,-,-,-,-,-,-,-,-
2025-05-06 16:56:13.976,MovementStep,Unknown,0,Unknown,-,0,Practice_HighLowRatio,17,1,1,-,-,Pending,-,-,-,-,-,272.067,272.167,0.100,True,1,-3.50,1.50,-2.50,1.50,-,-,0.100,False,-,-,-,-,-,-,-,-,-,-,-,-,-,-,-,-,-,-,-,-,-,-,-,-,-,-,-,-,-,-,-,-
2025-05-06 16:56:14.034,MovementStart,Unknown,0,Unknown,-,0,-,17,-,-,-,-,-,-,-,-,-,-,-,-,-,-,-,-2.50,1.50,-,-,-,-,-,-,-,-,-,-,-,-,-,-,-,-,-,-,-,-,-,-,-,-,-,-,-,-,-,-,-,-,-,-,-,-,-,-
2025-05-06 16:56:14.134,MovementStep,Unknown,0,Unknown,-,0,Practice_HighLowRatio,17,1,1,-,-,Pending,-,-,-,-,-,272.225,272.324,0.100,True,1,-2.50,1.50,-1.50,1.50,-,-,0.100,True,-,-,-,-,-,-,-,-,-,-,-,-,-,-,-,-,-,-,-,-,-,-,-,-,-,-,-,-,-,-,-,-
2025-05-06 16:56:14.198,MovementStart,Unknown,0,Unknown,-,0,-,17,-,-,-,-,-,-,-,-,-,-,-,-,-,-,-,-1.50,1.50,-,-,-,-,-,-,-,-,-,-,-,-,-,-,-,-,-,-,-,-,-,-,-,-,-,-,-,-,-,-,-,-,-,-,-,-,-,-
2025-05-06 16:56:14.298,MovementStep,Unknown,0,Unknown,-,0,Practice_HighLowRatio,17,1,1,-,-,Pending,-,-,-,-,-,272.389,272.489,0.100,True,1,-1.50,1.50,-0.50,1.50,-,-,0.100,True,-,-,-,-,-,-,-,-,-,-,-,-,-,-,-,-,-,-,-,-,-,-,-,-,-,-,-,-,-,-,-,-
2025-05-06 16:56:14.354,MovementStart,Unknown,0,Unknown,-,0,-,17,-,-,-,-,-,-,-,-,-,-,-,-,-,-,-,-0.50,1.50,-,-,-,-,-,-,-,-,-,-,-,-,-,-,-,-,-,-,-,-,-,-,-,-,-,-,-,-,-,-,-,-,-,-,-,-,-,-
2025-05-06 16:56:14.371,ScoreUpdate,Unknown,0,Unknown,True,0,-,17,-,-,-,-,-,-,10,0,120,-,-,-,-,-,-,-,-,-,-,-,-,-,-,-,-,-,-,-,-,-,-,-,-,-,-,-,-,-,-,-,-,-,-,-,-,-,-,-,-,-,-,-,-,-,-
2025-05-06 16:56:14.371,CollisionTime,Unknown,0,Unknown,True,0,-,17,-,-,-,-,-,-,-,-,-,0.671,-,-,-,-,-,-,-,-,-,-,-,-,-,-,-,-,-,-,-,-,-,-,-,-,-,-,-,-,-,-,-,-,-,-,-,-,-,-,-,-,-,-,-,-,-
2025-05-06 16:56:14.372,MovementDuration,Unknown,0,Unknown,-,-,-,17,-,-,-,-,Success,-,-,-,-,0.671,-,-,-,-,-,-,-,-,-,-,-,-,-,-,-,-,-,-,-,-,-,-,-,-,-,-,-,-,-,-,-,-,-,-,-,-,-,-,-,-,-,-,-,-,-
2025-05-06 16:56:14.374,DecisionOutcome,Unknown,0,Unknown,True,0,Practice_HighLowRatio,17,1,1,Work,0.540,Success,True,10,0,0,0.671,-,-,-,-,-,-,-,-,-,5,0.507:right|0.685:right|0.843:right|1.007:right|1.163:right,0.134,False,0.1,-,-,0.00,0.00,0,0,-,-,-,-,-,-,-,-,-,-,-,-,-,-,-,-,-,-,-,-,-,-,-,-,-
2025-05-06 16:56:14.374,MovementComplete,Unknown,0,Unknown,-,-,-,17,-,-,-,-,-,True,-,-,-,-,-,-,-,-,-,-,-,-,-,-,-,-,-,-,-,-,-,-,-,-,-,-,-,-,-,-,-,-,-,-,-,-,-,-,-,-,-,-,-,-,-,-,-,-,-
2025-05-06 16:56:14.375,RewardCollected,Unknown,0,Unknown,-,-,-,17,-,-,-,-,-,-,-,-,-,-,-,-,-,-,-,-,-,-,-,-,-,-,-,-,-,-,-,-,-,-,-,-,-,-,-,-,-,-,-,-,-,-,-,-,-,-,-,-,-,-,-,-,-,-,-
2025-05-06 16:56:14.375,OutcomeType,Unknown,0,Unknown,-,-,-,17,-,-,-,-,Success,-,-,-,-,-,-,-,-,-,-,-,-,-,-,-,-,-,-,-,-,-,-,-,-,-,-,-,-,-,-,-,-,-,-,-,-,-,-,-,-,-,-,-,-,-,-,-,-,-,-
2025-05-06 16:56:14.376,RewardCollected,Unknown,0,Unknown,-,-,-,17,-,-,-,-,-,-,-,-,-,-,-,-,-,-,-,-,-,-,-,-,-,-,-,-,-,-,-,-,-,-,-,-,-,-,-,-,-,-,-,-,-,-,-,-,-,-,-,-,-,-,-,-,-,-,-
2025-05-06 16:56:14.376,ButtonPresses,Unknown,0,Unknown,-,-,-,17,-,-,-,-,-,-,-,-,-,-,-,-,-,-,-,-,-,-,-,5,0.507:right|0.685:right|0.843:right|1.007:right|1.163:right,-,-,-,-,-,-,-,-,-,-,-,-,-,-,-,-,-,-,-,-,-,-,-,-,-,-,-,-,-,-,-,-,-,-
2025-05-06 16:56:14.454,MovementStep,Unknown,0,Unknown,-,0,Practice_HighLowRatio,17,1,1,-,-,Success,-,-,-,-,-,272.544,272.645,0.100,True,1,-0.50,1.50,0.50,1.50,-,-,0.100,False,-,-,-,-,-,-,-,-,-,-,-,-,-,-,-,-,-,-,-,-,-,-,-,-,-,-,-,-,-,-,-,-
2025-05-06 16:56:20.525,InfoMessage,Unknown,0,Unknown,-,-,-,-,-,-,-,-,-,-,-,-,-,-,-,-,-,-,-,-,-,-,-,-,-,-,-,-,-,-,-,-,-,-,-,-,-,-,-,-,-,-,-,-,-,-,-,-,-,-,-,-,-,-,-,-,-,-,-
2025-05-06 16:56:22.735,PracticeTrialStart,Unknown,0,Unknown,True,0,-,1,-,-,-,-,-,-,-,-,-,-,-,-,-,-,-,-,-,-,-,-,-,-,-,-,-,-,-,-,-,-,-,-,-,-,-,-,-,-,-,-,-,-,-,-,-,-,-,-,-,-,-,-,-,-,-
2025-05-06 16:56:24.644,MovementStart,Unknown,0,Unknown,-,0,-,1,-,-,-,-,-,-,-,-,-,-,-,-,-,-,-,-7.50,-3.50,-,-,-,-,-,-,-,-,-,-,-,-,-,-,-,-,-,-,-,-,-,-,-,-,-,-,-,-,-,-,-,-,-,-,-,-,-,-
2025-05-06 16:56:24.744,MovementStep,Unknown,0,Unknown,-,0,Practice_LowHighRatio,1,2,3,-,-,Pending,-,-,-,-,-,281.893,282.343,0.450,True,3,-7.50,-3.50,-6.50,-3.50,-,-,0.150,False,-,-,-,-,-,-,-,-,-,-,-,-,-,-,-,-,-,-,-,-,-,-,-,-,-,-,-,-,-,-,-,-
2025-05-06 16:56:25.117,MovementStart,Unknown,0,Unknown,-,0,-,1,-,-,-,-,-,-,-,-,-,-,-,-,-,-,-,-6.50,-3.50,-,-,-,-,-,-,-,-,-,-,-,-,-,-,-,-,-,-,-,-,-,-,-,-,-,-,-,-,-,-,-,-,-,-,-,-,-,-
2025-05-06 16:56:25.217,MovementStep,Unknown,0,Unknown,-,0,Practice_LowHighRatio,1,2,3,-,-,Pending,-,-,-,-,-,282.403,282.816,0.413,True,3,-6.50,-3.50,-5.50,-3.50,-,-,0.138,False,-,-,-,-,-,-,-,-,-,-,-,-,-,-,-,-,-,-,-,-,-,-,-,-,-,-,-,-,-,-,-,-
2025-05-06 16:56:25.583,MovementStart,Unknown,0,Unknown,-,0,-,1,-,-,-,-,-,-,-,-,-,-,-,-,-,-,-,-5.50,-3.50,-,-,-,-,-,-,-,-,-,-,-,-,-,-,-,-,-,-,-,-,-,-,-,-,-,-,-,-,-,-,-,-,-,-,-,-,-,-
2025-05-06 16:56:25.683,MovementStep,Unknown,0,Unknown,-,0,Practice_LowHighRatio,1,2,3,-,-,Pending,-,-,-,-,-,282.861,283.282,0.421,True,3,-5.50,-3.50,-4.50,-3.50,-,-,0.140,False,-,-,-,-,-,-,-,-,-,-,-,-,-,-,-,-,-,-,-,-,-,-,-,-,-,-,-,-,-,-,-,-
2025-05-06 16:56:26.080,MovementStart,Unknown,0,Unknown,-,0,-,1,-,-,-,-,-,-,-,-,-,-,-,-,-,-,-,-4.50,-3.50,-,-,-,-,-,-,-,-,-,-,-,-,-,-,-,-,-,-,-,-,-,-,-,-,-,-,-,-,-,-,-,-,-,-,-,-,-,-
2025-05-06 16:56:26.180,MovementStep,Unknown,0,Unknown,-,0,Practice_LowHighRatio,1,2,3,-,-,Pending,-,-,-,-,-,283.351,283.778,0.427,True,3,-4.50,-3.50,-3.50,-3.50,-,-,0.142,False,-,-,-,-,-,-,-,-,-,-,-,-,-,-,-,-,-,-,-,-,-,-,-,-,-,-,-,-,-,-,-,-
2025-05-06 16:56:26.588,MovementStart,Unknown,0,Unknown,-,0,-,1,-,-,-,-,-,-,-,-,-,-,-,-,-,-,-,-3.50,-3.50,-,-,-,-,-,-,-,-,-,-,-,-,-,-,-,-,-,-,-,-,-,-,-,-,-,-,-,-,-,-,-,-,-,-,-,-,-,-
2025-05-06 16:56:26.603,ScoreUpdate,Unknown,0,Unknown,True,0,-,1,-,-,-,-,-,-,10,0,130,-,-,-,-,-,-,-,-,-,-,-,-,-,-,-,-,-,-,-,-,-,-,-,-,-,-,-,-,-,-,-,-,-,-,-,-,-,-,-,-,-,-,-,-,-,-
2025-05-06 16:56:26.604,CollisionTime,Unknown,0,Unknown,True,0,-,1,-,-,-,-,-,-,-,-,-,2.307,-,-,-,-,-,-,-,-,-,-,-,-,-,-,-,-,-,-,-,-,-,-,-,-,-,-,-,-,-,-,-,-,-,-,-,-,-,-,-,-,-,-,-,-,-
2025-05-06 16:56:26.605,MovementDuration,Unknown,0,Unknown,-,-,-,1,-,-,-,-,Success,-,-,-,-,2.307,-,-,-,-,-,-,-,-,-,-,-,-,-,-,-,-,-,-,-,-,-,-,-,-,-,-,-,-,-,-,-,-,-,-,-,-,-,-,-,-,-,-,-,-,-
2025-05-06 16:56:26.607,DecisionOutcome,Unknown,0,Unknown,True,0,Practice_LowHighRatio,1,2,3,Work,0.798,Success,True,10,0,0,2.307,-,-,-,-,-,-,-,-,-,15,1.452:right|1.650:right|1.802:right|1.962:right|2.115:right|2.275:right|2.420:right|2.578:right|2.741:right|2.911:right|3.075:right|3.238:right|3.405:right|3.578:right|3.746:right,0.154,False,0.1,-,-,0.00,0.00,0,0,-,-,-,-,-,-,-,-,-,-,-,-,-,-,-,-,-,-,-,-,-,-,-,-,-
2025-05-06 16:56:26.607,MovementComplete,Unknown,0,Unknown,-,-,-,1,-,-,-,-,-,True,-,-,-,-,-,-,-,-,-,-,-,-,-,-,-,-,-,-,-,-,-,-,-,-,-,-,-,-,-,-,-,-,-,-,-,-,-,-,-,-,-,-,-,-,-,-,-,-,-
2025-05-06 16:56:26.607,RewardCollected,Unknown,0,Unknown,-,-,-,1,-,-,-,-,-,-,-,-,-,-,-,-,-,-,-,-,-,-,-,-,-,-,-,-,-,-,-,-,-,-,-,-,-,-,-,-,-,-,-,-,-,-,-,-,-,-,-,-,-,-,-,-,-,-,-
2025-05-06 16:56:26.608,OutcomeType,Unknown,0,Unknown,-,-,-,1,-,-,-,-,Success,-,-,-,-,-,-,-,-,-,-,-,-,-,-,-,-,-,-,-,-,-,-,-,-,-,-,-,-,-,-,-,-,-,-,-,-,-,-,-,-,-,-,-,-,-,-,-,-,-,-
2025-05-06 16:56:26.608,RewardCollected,Unknown,0,Unknown,-,-,-,1,-,-,-,-,-,-,-,-,-,-,-,-,-,-,-,-,-,-,-,-,-,-,-,-,-,-,-,-,-,-,-,-,-,-,-,-,-,-,-,-,-,-,-,-,-,-,-,-,-,-,-,-,-,-,-
2025-05-06 16:56:26.608,ButtonPresses,Unknown,0,Unknown,-,-,-,1,-,-,-,-,-,-,-,-,-,-,-,-,-,-,-,-,-,-,-,15,1.452:right|1.650:right|1.802:right|1.962:right|2.115:right|2.275:right|2.420:right|2.578:right|2.741:right|2.911:right|3.075:right|3.238:right|3.405:right|3.578:right|3.746:right,-,-,-,-,-,-,-,-,-,-,-,-,-,-,-,-,-,-,-,-,-,-,-,-,-,-,-,-,-,-,-,-,-,-
2025-05-06 16:56:26.688,MovementStep,Unknown,0,Unknown,-,0,Practice_LowHighRatio,1,2,3,-,-,Success,-,-,-,-,-,283.845,284.286,0.441,True,3,-3.51,-3.50,-2.50,-3.50,-,-,0.147,False,-,-,-,-,-,-,-,-,-,-,-,-,-,-,-,-,-,-,-,-,-,-,-,-,-,-,-,-,-,-,-,-
2025-05-06 16:56:28.988,InfoMessage,Unknown,0,Unknown,-,-,-,-,-,-,-,-,-,-,-,-,-,-,-,-,-,-,-,-,-,-,-,-,-,-,-,-,-,-,-,-,-,-,-,-,-,-,-,-,-,-,-,-,-,-,-,-,-,-,-,-,-,-,-,-,-,-,-
2025-05-06 16:56:31.125,PracticeTrialStart,Unknown,0,Unknown,True,0,-,2,-,-,-,-,-,-,-,-,-,-,-,-,-,-,-,-,-,-,-,-,-,-,-,-,-,-,-,-,-,-,-,-,-,-,-,-,-,-,-,-,-,-,-,-,-,-,-,-,-,-,-,-,-,-,-
2025-05-06 16:56:32.512,MovementStart,Unknown,0,Unknown,-,0,-,2,-,-,-,-,-,-,-,-,-,-,-,-,-,-,-,-1.50,-2.50,-,-,-,-,-,-,-,-,-,-,-,-,-,-,-,-,-,-,-,-,-,-,-,-,-,-,-,-,-,-,-,-,-,-,-,-,-,-
2025-05-06 16:56:32.612,MovementStep,Unknown,0,Unknown,-,0,Practice_LowHighRatio,2,3,5,-,-,Pending,-,-,-,-,-,288.839,289.770,0.930,True,5,-1.50,-2.50,-2.50,-2.50,-,-,0.186,False,-,-,-,-,-,-,-,-,-,-,-,-,-,-,-,-,-,-,-,-,-,-,-,-,-,-,-,-,-,-,-,-
2025-05-06 16:56:33.344,MovementStart,Unknown,0,Unknown,-,0,-,2,-,-,-,-,-,-,-,-,-,-,-,-,-,-,-,-2.50,-2.50,-,-,-,-,-,-,-,-,-,-,-,-,-,-,-,-,-,-,-,-,-,-,-,-,-,-,-,-,-,-,-,-,-,-,-,-,-,-
2025-05-06 16:56:33.444,MovementStep,Unknown,0,Unknown,-,0,Practice_LowHighRatio,2,3,5,-,-,Pending,-,-,-,-,-,289.854,290.601,0.748,True,5,-2.50,-2.50,-3.50,-2.50,-,-,0.150,False,-,-,-,-,-,-,-,-,-,-,-,-,-,-,-,-,-,-,-,-,-,-,-,-,-,-,-,-,-,-,-,-
2025-05-06 16:56:34.187,MovementStart,Unknown,0,Unknown,-,0,-,2,-,-,-,-,-,-,-,-,-,-,-,-,-,-,-,-3.50,-2.50,-,-,-,-,-,-,-,-,-,-,-,-,-,-,-,-,-,-,-,-,-,-,-,-,-,-,-,-,-,-,-,-,-,-,-,-,-,-
2025-05-06 16:56:34.288,MovementStep,Unknown,0,Unknown,-,0,Practice_LowHighRatio,2,3,5,-,-,Pending,-,-,-,-,-,290.669,291.445,0.776,True,5,-3.50,-2.50,-4.50,-2.50,-,-,0.155,False,-,-,-,-,-,-,-,-,-,-,-,-,-,-,-,-,-,-,-,-,-,-,-,-,-,-,-,-,-,-,-,-
2025-05-06 16:56:36.213,MovementDuration,Unknown,0,Unknown,-,-,-,2,-,-,-,-,Failure,-,-,-,-,4.531,-,-,-,-,-,-,-,-,-,-,-,-,-,-,-,-,-,-,-,-,-,-,-,-,-,-,-,-,-,-,-,-,-,-,-,-,-,-,-,-,-,-,-,-,-
2025-05-06 16:56:36.214,OutcomeType,Unknown,0,Unknown,-,-,-,2,-,-,-,-,Failure,-,-,-,-,-,-,-,-,-,-,-,-,-,-,-,-,-,-,-,-,-,-,-,-,-,-,-,-,-,-,-,-,-,-,-,-,-,-,-,-,-,-,-,-,-,-,-,-,-,-
2025-05-06 16:56:36.214,RewardCollected,Unknown,0,Unknown,-,-,-,2,-,-,-,-,-,-,-,-,-,-,-,-,-,-,-,-,-,-,-,-,-,-,-,-,-,-,-,-,-,-,-,-,-,-,-,-,-,-,-,-,-,-,-,-,-,-,-,-,-,-,-,-,-,-,-
2025-05-06 16:56:36.215,ButtonPresses,Unknown,0,Unknown,-,-,-,2,-,-,-,-,-,-,-,-,-,-,-,-,-,-,-,-,-,-,-,16,0.449:left|0.753:left|0.933:left|1.110:left|1.279:left|1.463:left|1.613:left|1.795:left|1.945:left|2.111:left|2.279:left|2.463:left|2.639:left|2.811:left|2.954:left|3.132:left,-,-,-,-,-,-,-,-,-,-,-,-,-,-,-,-,-,-,-,-,-,-,-,-,-,-,-,-,-,-,-,-,-,-
2025-05-06 16:56:36.217,DecisionOutcome,Unknown,0,Unknown,True,0,Practice_LowHighRatio,2,3,5,Work,0.737,Failure,False,0,0,0,4.531,-,-,-,-,-,-,-,-,-,16,0.449:left|0.753:left|0.933:left|1.110:left|1.279:left|1.463:left|1.613:left|1.795:left|1.945:left|2.111:left|2.279:left|2.463:left|2.639:left|2.811:left|2.954:left|3.132:left,0.283,False,0.1,-,-,0.00,0.00,0,0,-,-,-,-,-,-,-,-,-,-,-,-,-,-,-,-,-,-,-,-,-,-,-,-,-
2025-05-06 16:56:36.218,ButtonPresses,Unknown,0,Unknown,-,-,-,2,-,-,-,-,-,-,-,-,-,-,-,-,-,-,-,-,-,-,-,16,0.449:left|0.753:left|0.933:left|1.110:left|1.279:left|1.463:left|1.613:left|1.795:left|1.945:left|2.111:left|2.279:left|2.463:left|2.639:left|2.811:left|2.954:left|3.132:left,-,-,-,-,-,-,-,-,-,-,-,-,-,-,-,-,-,-,-,-,-,-,-,-,-,-,-,-,-,-,-,-,-,-
2025-05-06 16:56:36.218,MovementComplete,Unknown,0,Unknown,-,-,-,2,-,-,-,-,-,False,-,-,-,-,-,-,-,-,-,-,-,-,-,-,-,-,-,-,-,-,-,-,-,-,-,-,-,-,-,-,-,-,-,-,-,-,-,-,-,-,-,-,-,-,-,-,-,-,-
2025-05-06 16:56:36.219,RewardCollected,Unknown,0,Unknown,-,-,-,2,-,-,-,-,-,-,-,-,-,-,-,-,-,-,-,-,-,-,-,-,-,-,-,-,-,-,-,-,-,-,-,-,-,-,-,-,-,-,-,-,-,-,-,-,-,-,-,-,-,-,-,-,-,-,-
2025-05-06 16:56:37.377,InfoMessage,Unknown,0,Unknown,-,-,-,-,-,-,-,-,-,-,-,-,-,-,-,-,-,-,-,-,-,-,-,-,-,-,-,-,-,-,-,-,-,-,-,-,-,-,-,-,-,-,-,-,-,-,-,-,-,-,-,-,-,-,-,-,-,-,-
2025-05-06 16:56:38.577,DecisionOutcome,Unknown,0,Unknown,True,0,Practice_LowHighRatio,3,3,5,Skip,1.210,Skip,False,0,0,0,0.000,-,-,-,-,-,-,-,-,-,0,-,-1.000,False,0.1,Skip,3,0.00,0.00,0,0,-,-,-,-,-,-,-,-,-,-,-,-,-,-,-,-,-,-,-,-,-,-,-,-,-
2025-05-06 16:56:38.579,ScoreUpdate,Unknown,0,Unknown,True,0,-,3,-,-,-,-,-,-,0,0,130,-,-,-,-,-,-,-,-,-,-,-,-,-,-,-,-,-,-,-,-,-,-,-,-,-,-,-,-,-,-,-,-,-,-,-,-,-,-,-,-,-,-,-,-,-,-
2025-05-06 16:56:42.740,InfoMessage,Unknown,0,Unknown,-,-,-,-,-,-,-,-,-,-,-,-,-,-,-,-,-,-,-,-,-,-,-,-,-,-,-,-,-,-,-,-,-,-,-,-,-,-,-,-,-,-,-,-,-,-,-,-,-,-,-,-,-,-,-,-,-,-,-
2025-05-06 16:56:44.685,PracticeTrialStart,Unknown,0,Unknown,True,0,-,4,-,-,-,-,-,-,-,-,-,-,-,-,-,-,-,-,-,-,-,-,-,-,-,-,-,-,-,-,-,-,-,-,-,-,-,-,-,-,-,-,-,-,-,-,-,-,-,-,-,-,-,-,-,-,-
2025-05-06 16:56:45.328,MovementStart,Unknown,0,Unknown,-,0,-,4,-,-,-,-,-,-,-,-,-,-,-,-,-,-,-,-3.50,-1.50,-,-,-,-,-,-,-,-,-,-,-,-,-,-,-,-,-,-,-,-,-,-,-,-,-,-,-,-,-,-,-,-,-,-,-,-,-,-
2025-05-06 16:56:45.429,MovementStep,Unknown,0,Unknown,-,0,Practice_LowHighRatio,4,1,1,-,-,Pending,-,-,-,-,-,301.898,301.999,0.101,True,1,-3.50,-1.50,-2.50,-1.50,-,-,0.101,False,-,-,-,-,-,-,-,-,-,-,-,-,-,-,-,-,-,-,-,-,-,-,-,-,-,-,-,-,-,-,-,-
2025-05-06 16:56:45.548,MovementStart,Unknown,0,Unknown,-,0,-,4,-,-,-,-,-,-,-,-,-,-,-,-,-,-,-,-2.50,-1.50,-,-,-,-,-,-,-,-,-,-,-,-,-,-,-,-,-,-,-,-,-,-,-,-,-,-,-,-,-,-,-,-,-,-,-,-,-,-
2025-05-06 16:56:45.649,MovementStep,Unknown,0,Unknown,-,0,Practice_LowHighRatio,4,1,1,-,-,Pending,-,-,-,-,-,302.118,302.218,0.101,True,1,-2.50,-1.50,-1.50,-1.50,-,-,0.101,False,-,-,-,-,-,-,-,-,-,-,-,-,-,-,-,-,-,-,-,-,-,-,-,-,-,-,-,-,-,-,-,-
2025-05-06 16:56:45.708,MovementStart,Unknown,0,Unknown,-,0,-,4,-,-,-,-,-,-,-,-,-,-,-,-,-,-,-,-1.50,-1.50,-,-,-,-,-,-,-,-,-,-,-,-,-,-,-,-,-,-,-,-,-,-,-,-,-,-,-,-,-,-,-,-,-,-,-,-,-,-
2025-05-06 16:56:45.809,MovementStep,Unknown,0,Unknown,-,0,Practice_LowHighRatio,4,1,1,-,-,Pending,-,-,-,-,-,302.278,302.379,0.101,True,1,-1.51,-1.50,-0.50,-1.50,-,-,0.101,False,-,-,-,-,-,-,-,-,-,-,-,-,-,-,-,-,-,-,-,-,-,-,-,-,-,-,-,-,-,-,-,-
2025-05-06 16:56:45.879,MovementStart,Unknown,0,Unknown,-,0,-,4,-,-,-,-,-,-,-,-,-,-,-,-,-,-,-,-0.50,-1.50,-,-,-,-,-,-,-,-,-,-,-,-,-,-,-,-,-,-,-,-,-,-,-,-,-,-,-,-,-,-,-,-,-,-,-,-,-,-
2025-05-06 16:56:45.979,MovementStep,Unknown,0,Unknown,-,0,Practice_LowHighRatio,4,1,1,-,-,Pending,-,-,-,-,-,302.449,302.549,0.100,True,1,-0.50,-1.50,0.50,-1.50,-,-,0.100,False,-,-,-,-,-,-,-,-,-,-,-,-,-,-,-,-,-,-,-,-,-,-,-,-,-,-,-,-,-,-,-,-
2025-05-06 16:56:46.047,MovementStart,Unknown,0,Unknown,-,0,-,4,-,-,-,-,-,-,-,-,-,-,-,-,-,-,-,0.50,-1.50,-,-,-,-,-,-,-,-,-,-,-,-,-,-,-,-,-,-,-,-,-,-,-,-,-,-,-,-,-,-,-,-,-,-,-,-,-,-
2025-05-06 16:56:46.071,ScoreUpdate,Unknown,0,Unknown,True,0,-,4,-,-,-,-,-,-,10,0,140,-,-,-,-,-,-,-,-,-,-,-,-,-,-,-,-,-,-,-,-,-,-,-,-,-,-,-,-,-,-,-,-,-,-,-,-,-,-,-,-,-,-,-,-,-,-
2025-05-06 16:56:46.072,CollisionTime,Unknown,0,Unknown,True,0,-,4,-,-,-,-,-,-,-,-,-,0.742,-,-,-,-,-,-,-,-,-,-,-,-,-,-,-,-,-,-,-,-,-,-,-,-,-,-,-,-,-,-,-,-,-,-,-,-,-,-,-,-,-,-,-,-,-
2025-05-06 16:56:46.073,MovementDuration,Unknown,0,Unknown,-,-,-,4,-,-,-,-,Success,-,-,-,-,0.742,-,-,-,-,-,-,-,-,-,-,-,-,-,-,-,-,-,-,-,-,-,-,-,-,-,-,-,-,-,-,-,-,-,-,-,-,-,-,-,-,-,-,-,-,-
2025-05-06 16:56:46.075,DecisionOutcome,Unknown,0,Unknown,True,0,Practice_LowHighRatio,4,1,1,Work,0.544,Success,True,10,0,0,0.742,-,-,-,-,-,-,-,-,-,5,0.535:right|0.754:right|0.915:right|1.086:right|1.254:right,0.148,False,0.1,-,-,0.00,0.00,0,0,-,-,-,-,-,-,-,-,-,-,-,-,-,-,-,-,-,-,-,-,-,-,-,-,-
2025-05-06 16:56:46.075,MovementComplete,Unknown,0,Unknown,-,-,-,4,-,-,-,-,-,True,-,-,-,-,-,-,-,-,-,-,-,-,-,-,-,-,-,-,-,-,-,-,-,-,-,-,-,-,-,-,-,-,-,-,-,-,-,-,-,-,-,-,-,-,-,-,-,-,-
2025-05-06 16:56:46.076,RewardCollected,Unknown,0,Unknown,-,-,-,4,-,-,-,-,-,-,-,-,-,-,-,-,-,-,-,-,-,-,-,-,-,-,-,-,-,-,-,-,-,-,-,-,-,-,-,-,-,-,-,-,-,-,-,-,-,-,-,-,-,-,-,-,-,-,-
2025-05-06 16:56:46.076,OutcomeType,Unknown,0,Unknown,-,-,-,4,-,-,-,-,Success,-,-,-,-,-,-,-,-,-,-,-,-,-,-,-,-,-,-,-,-,-,-,-,-,-,-,-,-,-,-,-,-,-,-,-,-,-,-,-,-,-,-,-,-,-,-,-,-,-,-
2025-05-06 16:56:46.076,RewardCollected,Unknown,0,Unknown,-,-,-,4,-,-,-,-,-,-,-,-,-,-,-,-,-,-,-,-,-,-,-,-,-,-,-,-,-,-,-,-,-,-,-,-,-,-,-,-,-,-,-,-,-,-,-,-,-,-,-,-,-,-,-,-,-,-,-
2025-05-06 16:56:46.076,ButtonPresses,Unknown,0,Unknown,-,-,-,4,-,-,-,-,-,-,-,-,-,-,-,-,-,-,-,-,-,-,-,5,0.535:right|0.754:right|0.915:right|1.086:right|1.254:right,-,-,-,-,-,-,-,-,-,-,-,-,-,-,-,-,-,-,-,-,-,-,-,-,-,-,-,-,-,-,-,-,-,-
2025-05-06 16:56:46.147,MovementStep,Unknown,0,Unknown,-,0,Practice_LowHighRatio,4,1,1,-,-,Success,-,-,-,-,-,302.617,302.717,0.100,True,1,0.50,-1.50,1.50,-1.50,-,-,0.100,False,-,-,-,-,-,-,-,-,-,-,-,-,-,-,-,-,-,-,-,-,-,-,-,-,-,-,-,-,-,-,-,-
2025-05-06 16:56:50.937,InfoMessage,Unknown,0,Unknown,-,-,-,-,-,-,-,-,-,-,-,-,-,-,-,-,-,-,-,-,-,-,-,-,-,-,-,-,-,-,-,-,-,-,-,-,-,-,-,-,-,-,-,-,-,-,-,-,-,-,-,-,-,-,-,-,-,-,-
2025-05-06 16:56:53.247,PracticeTrialStart,Unknown,0,Unknown,True,0,-,5,-,-,-,-,-,-,-,-,-,-,-,-,-,-,-,-,-,-,-,-,-,-,-,-,-,-,-,-,-,-,-,-,-,-,-,-,-,-,-,-,-,-,-,-,-,-,-,-,-,-,-,-,-,-,-
2025-05-06 16:56:58.335,MovementDuration,Unknown,0,Unknown,-,-,-,5,-,-,-,-,Failure,-,-,-,-,0.090,-,-,-,-,-,-,-,-,-,-,-,-,-,-,-,-,-,-,-,-,-,-,-,-,-,-,-,-,-,-,-,-,-,-,-,-,-,-,-,-,-,-,-,-,-
2025-05-06 16:56:58.336,OutcomeType,Unknown,0,Unknown,-,-,-,5,-,-,-,-,Failure,-,-,-,-,-,-,-,-,-,-,-,-,-,-,-,-,-,-,-,-,-,-,-,-,-,-,-,-,-,-,-,-,-,-,-,-,-,-,-,-,-,-,-,-,-,-,-,-,-,-
2025-05-06 16:56:58.336,RewardCollected,Unknown,0,Unknown,-,-,-,5,-,-,-,-,-,-,-,-,-,-,-,-,-,-,-,-,-,-,-,-,-,-,-,-,-,-,-,-,-,-,-,-,-,-,-,-,-,-,-,-,-,-,-,-,-,-,-,-,-,-,-,-,-,-,-
2025-05-06 16:56:58.336,ButtonPresses,Unknown,0,Unknown,-,-,-,5,-,-,-,-,-,-,-,-,-,-,-,-,-,-,-,-,-,-,-,1,4.891:left,-,-,-,-,-,-,-,-,-,-,-,-,-,-,-,-,-,-,-,-,-,-,-,-,-,-,-,-,-,-,-,-,-,-
2025-05-06 16:56:58.339,DecisionOutcome,Unknown,0,Unknown,True,0,Practice_LowHighRatio,5,3,5,Work,0.909,Failure,False,0,0,0,0.090,-,-,-,-,-,-,-,-,-,1,4.891:left,0.090,True,0.1,-,-,0.00,0.00,0,0,-,-,-,-,-,-,-,-,-,-,-,-,-,-,-,-,-,-,-,-,-,-,-,-,-
2025-05-06 16:56:58.339,ButtonPresses,Unknown,0,Unknown,-,-,-,5,-,-,-,-,-,-,-,-,-,-,-,-,-,-,-,-,-,-,-,1,4.891:left,-,-,-,-,-,-,-,-,-,-,-,-,-,-,-,-,-,-,-,-,-,-,-,-,-,-,-,-,-,-,-,-,-,-
2025-05-06 16:56:58.340,MovementComplete,Unknown,0,Unknown,-,-,-,5,-,-,-,-,-,False,-,-,-,-,-,-,-,-,-,-,-,-,-,-,-,-,-,-,-,-,-,-,-,-,-,-,-,-,-,-,-,-,-,-,-,-,-,-,-,-,-,-,-,-,-,-,-,-,-
2025-05-06 16:56:58.340,RewardCollected,Unknown,0,Unknown,-,-,-,5,-,-,-,-,-,-,-,-,-,-,-,-,-,-,-,-,-,-,-,-,-,-,-,-,-,-,-,-,-,-,-,-,-,-,-,-,-,-,-,-,-,-,-,-,-,-,-,-,-,-,-,-,-,-,-
2025-05-06 16:56:59.499,InfoMessage,Unknown,0,Unknown,-,-,-,-,-,-,-,-,-,-,-,-,-,-,-,-,-,-,-,-,-,-,-,-,-,-,-,-,-,-,-,-,-,-,-,-,-,-,-,-,-,-,-,-,-,-,-,-,-,-,-,-,-,-,-,-,-,-,-
2025-05-06 16:57:01.648,PracticeTrialStart,Unknown,0,Unknown,True,0,-,6,-,-,-,-,-,-,-,-,-,-,-,-,-,-,-,-,-,-,-,-,-,-,-,-,-,-,-,-,-,-,-,-,-,-,-,-,-,-,-,-,-,-,-,-,-,-,-,-,-,-,-,-,-,-,-
2025-05-06 16:57:02.772,MovementStart,Unknown,0,Unknown,-,0,-,6,-,-,-,-,-,-,-,-,-,-,-,-,-,-,-,-0.50,-0.50,-,-,-,-,-,-,-,-,-,-,-,-,-,-,-,-,-,-,-,-,-,-,-,-,-,-,-,-,-,-,-,-,-,-,-,-,-,-
2025-05-06 16:57:02.872,MovementStep,Unknown,0,Unknown,-,0,Practice_LowHighRatio,6,2,3,-,-,Pending,-,-,-,-,-,318.094,318.561,0.467,True,3,-0.50,-0.50,0.50,-0.50,-,-,0.156,False,-,-,-,-,-,-,-,-,-,-,-,-,-,-,-,-,-,-,-,-,-,-,-,-,-,-,-,-,-,-,-,-
2025-05-06 16:57:03.288,MovementStart,Unknown,0,Unknown,-,0,-,6,-,-,-,-,-,-,-,-,-,-,-,-,-,-,-,0.50,-0.50,-,-,-,-,-,-,-,-,-,-,-,-,-,-,-,-,-,-,-,-,-,-,-,-,-,-,-,-,-,-,-,-,-,-,-,-,-,-
2025-05-06 16:57:03.387,MovementStep,Unknown,0,Unknown,-,0,Practice_LowHighRatio,6,2,3,-,-,Pending,-,-,-,-,-,318.641,319.077,0.436,True,3,0.50,-0.50,1.50,-0.50,-,-,0.145,False,-,-,-,-,-,-,-,-,-,-,-,-,-,-,-,-,-,-,-,-,-,-,-,-,-,-,-,-,-,-,-,-
2025-05-06 16:57:03.779,MovementStart,Unknown,0,Unknown,-,0,-,6,-,-,-,-,-,-,-,-,-,-,-,-,-,-,-,1.50,-0.50,-,-,-,-,-,-,-,-,-,-,-,-,-,-,-,-,-,-,-,-,-,-,-,-,-,-,-,-,-,-,-,-,-,-,-,-,-,-
2025-05-06 16:57:03.879,MovementStep,Unknown,0,Unknown,-,0,Practice_LowHighRatio,6,2,3,-,-,Pending,-,-,-,-,-,319.110,319.569,0.459,True,3,1.50,-0.50,2.50,-0.50,-,-,0.153,False,-,-,-,-,-,-,-,-,-,-,-,-,-,-,-,-,-,-,-,-,-,-,-,-,-,-,-,-,-,-,-,-
2025-05-06 16:57:04.303,MovementStart,Unknown,0,Unknown,-,0,-,6,-,-,-,-,-,-,-,-,-,-,-,-,-,-,-,2.50,-0.50,-,-,-,-,-,-,-,-,-,-,-,-,-,-,-,-,-,-,-,-,-,-,-,-,-,-,-,-,-,-,-,-,-,-,-,-,-,-
2025-05-06 16:57:04.403,MovementStep,Unknown,0,Unknown,-,0,Practice_LowHighRatio,6,2,3,-,-,Pending,-,-,-,-,-,319.647,320.092,0.445,True,3,2.50,-0.50,3.50,-0.50,-,-,0.148,False,-,-,-,-,-,-,-,-,-,-,-,-,-,-,-,-,-,-,-,-,-,-,-,-,-,-,-,-,-,-,-,-
2025-05-06 16:57:04.837,MovementStart,Unknown,0,Unknown,-,0,-,6,-,-,-,-,-,-,-,-,-,-,-,-,-,-,-,3.50,-0.50,-,-,-,-,-,-,-,-,-,-,-,-,-,-,-,-,-,-,-,-,-,-,-,-,-,-,-,-,-,-,-,-,-,-,-,-,-,-
2025-05-06 16:57:04.852,ScoreUpdate,Unknown,0,Unknown,True,0,-,6,-,-,-,-,-,-,10,0,150,-,-,-,-,-,-,-,-,-,-,-,-,-,-,-,-,-,-,-,-,-,-,-,-,-,-,-,-,-,-,-,-,-,-,-,-,-,-,-,-,-,-,-,-,-,-
2025-05-06 16:57:04.852,CollisionTime,Unknown,0,Unknown,True,0,-,6,-,-,-,-,-,-,-,-,-,2.446,-,-,-,-,-,-,-,-,-,-,-,-,-,-,-,-,-,-,-,-,-,-,-,-,-,-,-,-,-,-,-,-,-,-,-,-,-,-,-,-,-,-,-,-,-
2025-05-06 16:57:04.853,MovementDuration,Unknown,0,Unknown,-,-,-,6,-,-,-,-,Success,-,-,-,-,2.446,-,-,-,-,-,-,-,-,-,-,-,-,-,-,-,-,-,-,-,-,-,-,-,-,-,-,-,-,-,-,-,-,-,-,-,-,-,-,-,-,-,-,-,-,-
2025-05-06 16:57:04.855,DecisionOutcome,Unknown,0,Unknown,True,0,Practice_LowHighRatio,6,2,3,Work,0.747,Success,True,10,0,0,2.446,-,-,-,-,-,-,-,-,-,15,0.649:right|0.832:right|1.016:right|1.196:right|1.362:right|1.532:right|1.664:right|1.852:right|2.023:right|2.202:right|2.372:right|2.547:right|2.710:right|2.891:right|3.082:right,0.163,False,0.1,-,-,0.00,0.00,0,0,-,-,-,-,-,-,-,-,-,-,-,-,-,-,-,-,-,-,-,-,-,-,-,-,-
2025-05-06 16:57:04.855,MovementComplete,Unknown,0,Unknown,-,-,-,6,-,-,-,-,-,True,-,-,-,-,-,-,-,-,-,-,-,-,-,-,-,-,-,-,-,-,-,-,-,-,-,-,-,-,-,-,-,-,-,-,-,-,-,-,-,-,-,-,-,-,-,-,-,-,-
2025-05-06 16:57:04.856,RewardCollected,Unknown,0,Unknown,-,-,-,6,-,-,-,-,-,-,-,-,-,-,-,-,-,-,-,-,-,-,-,-,-,-,-,-,-,-,-,-,-,-,-,-,-,-,-,-,-,-,-,-,-,-,-,-,-,-,-,-,-,-,-,-,-,-,-
2025-05-06 16:57:04.856,OutcomeType,Unknown,0,Unknown,-,-,-,6,-,-,-,-,Success,-,-,-,-,-,-,-,-,-,-,-,-,-,-,-,-,-,-,-,-,-,-,-,-,-,-,-,-,-,-,-,-,-,-,-,-,-,-,-,-,-,-,-,-,-,-,-,-,-,-
2025-05-06 16:57:04.857,RewardCollected,Unknown,0,Unknown,-,-,-,6,-,-,-,-,-,-,-,-,-,-,-,-,-,-,-,-,-,-,-,-,-,-,-,-,-,-,-,-,-,-,-,-,-,-,-,-,-,-,-,-,-,-,-,-,-,-,-,-,-,-,-,-,-,-,-
2025-05-06 16:57:04.857,ButtonPresses,Unknown,0,Unknown,-,-,-,6,-,-,-,-,-,-,-,-,-,-,-,-,-,-,-,-,-,-,-,15,0.649:right|0.832:right|1.016:right|1.196:right|1.362:right|1.532:right|1.664:right|1.852:right|2.023:right|2.202:right|2.372:right|2.547:right|2.710:right|2.891:right|3.082:right,-,-,-,-,-,-,-,-,-,-,-,-,-,-,-,-,-,-,-,-,-,-,-,-,-,-,-,-,-,-,-,-,-,-
2025-05-06 16:57:04.937,MovementStep,Unknown,0,Unknown,-,0,Practice_LowHighRatio,6,2,3,-,-,Success,-,-,-,-,-,320.155,320.626,0.471,True,3,3.50,-0.50,4.50,-0.50,-,-,0.157,False,-,-,-,-,-,-,-,-,-,-,-,-,-,-,-,-,-,-,-,-,-,-,-,-,-,-,-,-,-,-,-,-
2025-05-06 16:57:07.901,InfoMessage,Unknown,0,Unknown,-,-,-,-,-,-,-,-,-,-,-,-,-,-,-,-,-,-,-,-,-,-,-,-,-,-,-,-,-,-,-,-,-,-,-,-,-,-,-,-,-,-,-,-,-,-,-,-,-,-,-,-,-,-,-,-,-,-,-
2025-05-06 16:57:09.819,PracticeTrialStart,Unknown,0,Unknown,True,0,-,7,-,-,-,-,-,-,-,-,-,-,-,-,-,-,-,-,-,-,-,-,-,-,-,-,-,-,-,-,-,-,-,-,-,-,-,-,-,-,-,-,-,-,-,-,-,-,-,-,-,-,-,-,-,-,-
2025-05-06 16:57:10.876,MovementStart,Unknown,0,Unknown,-,0,-,7,-,-,-,-,-,-,-,-,-,-,-,-,-,-,-,-1.50,-0.50,-,-,-,-,-,-,-,-,-,-,-,-,-,-,-,-,-,-,-,-,-,-,-,-,-,-,-,-,-,-,-,-,-,-,-,-,-,-
2025-05-06 16:57:10.975,MovementStep,Unknown,0,Unknown,-,0,Practice_LowHighRatio,7,2,3,-,-,Pending,-,-,-,-,-,325.683,326.219,0.536,True,3,-1.50,-0.50,-0.50,-0.50,-,-,0.179,False,-,-,-,-,-,-,-,-,-,-,-,-,-,-,-,-,-,-,-,-,-,-,-,-,-,-,-,-,-,-,-,-
2025-05-06 16:57:11.408,MovementStart,Unknown,0,Unknown,-,0,-,7,-,-,-,-,-,-,-,-,-,-,-,-,-,-,-,-0.50,-0.50,-,-,-,-,-,-,-,-,-,-,-,-,-,-,-,-,-,-,-,-,-,-,-,-,-,-,-,-,-,-,-,-,-,-,-,-,-,-
2025-05-06 16:57:11.508,MovementStep,Unknown,0,Unknown,-,0,Practice_LowHighRatio,7,2,3,-,-,Pending,-,-,-,-,-,326.314,326.752,0.438,True,3,-0.50,-0.50,0.50,-0.50,-,-,0.146,False,-,-,-,-,-,-,-,-,-,-,-,-,-,-,-,-,-,-,-,-,-,-,-,-,-,-,-,-,-,-,-,-
2025-05-06 16:57:11.920,MovementStart,Unknown,0,Unknown,-,0,-,7,-,-,-,-,-,-,-,-,-,-,-,-,-,-,-,0.50,-0.50,-,-,-,-,-,-,-,-,-,-,-,-,-,-,-,-,-,-,-,-,-,-,-,-,-,-,-,-,-,-,-,-,-,-,-,-,-,-
2025-05-06 16:57:12.020,MovementStep,Unknown,0,Unknown,-,0,Practice_LowHighRatio,7,2,3,-,-,Pending,-,-,-,-,-,326.818,327.263,0.445,True,3,0.50,-0.50,1.50,-0.50,-,-,0.148,False,-,-,-,-,-,-,-,-,-,-,-,-,-,-,-,-,-,-,-,-,-,-,-,-,-,-,-,-,-,-,-,-
