Timestamp,EventType,ParticipantID,ParticipantAge,ParticipantGender,IsPractice,BlockNumber,BlockType,TrialNumber,EffortLevel,RequiredPresses,DecisionType,ReactionTime,OutcomeType,RewardCollected,Points,TotalScore,PracticeScore,MovementDuration,StepStartTime,StepEndTime,StepDuration,StepSuccessful,StepPressesRequired,StartX,StartY,EndX,EndY,TotalPresses,PressData,TimePerPress,IsRushing,RushingThreshold,PenaltyType,PenaltyDuration,RemainingTime,ElapsedTime,CompletedTrials,TrialRate,CalibrationEasy,CalibrationMedium,CalibrationHard,CalibrationPhase1Rate,CalibrationPhase2Rate,CalibrationPhase3Rate,CalibrationMaxRate,CheckPhase,QuestionNumber,QuestionType,QuestionText,SelectedAnswer,CorrectAnswer,IsCorrect,ResponseTime,Check1Score,Check2Score,ComprehensionScore,TotalCheckScore,FailedAttempts,TirednessRating,ParticipantFeedback,ContinueButtonClicked,ButtonAction,RedirectURL,
2025-05-15 11:00:22.618,CalibrationPhase,233,23,Female,-,-,-,-,-,-,-,-,-,-,-,-,-,-,-,-,-,-,-,-,-,-,-,14,-,-,-,-,-,-,-,-,-,-,-,-,-,-,-,-,-,-,-,-,-,-,-,-,-,-,-,-,-,-,-,-,-,-,-
2025-05-15 11:00:33.995,CalibrationPhase,233,23,Female,-,-,-,-,-,-,-,-,-,-,-,-,-,-,-,-,-,-,-,-,-,-,-,13,-,-,-,-,-,-,-,-,-,-,-,-,-,-,-,-,-,-,-,-,-,-,-,-,-,-,-,-,-,-,-,-,-,-,-
2025-05-15 11:00:46.514,CalibrationPhase,233,23,Female,-,-,-,-,-,-,-,-,-,-,-,-,-,-,-,-,-,-,-,-,-,-,-,26,-,-,-,-,-,-,-,-,-,-,-,-,-,-,-,-,-,-,-,-,-,-,-,-,-,-,-,-,-,-,-,-,-,-,-
2025-05-15 11:00:46.517,CalibrationComplete,233,23,Female,-,-,-,-,-,-,-,-,-,-,-,-,-,-,-,-,-,-,-,-,-,-,-,-,-,-,-,-,-,-,-,-,-,-,1,2,3,2.80,2.60,5.20,5.20,-,-,-,-,-,-,-,-,-,-,-,-,-,-,-,-,-,-
2025-05-15 11:01:32.967,PracticeTrialStart,233,23,Female,True,0,-,1,-,-,-,-,-,-,-,-,-,-,-,-,-,-,-,-,-,-,-,-,-,-,-,-,-,-,-,-,-,-,-,-,-,-,-,-,-,-,-,-,-,-,-,-,-,-,-,-,-,-,-,-,-,-,-
2025-05-15 11:01:33.744,MovementStart,233,23,Female,-,0,-,1,-,-,-,-,-,-,-,-,-,-,-,-,-,-,-,-7.50,0.50,-,-,-,-,-,-,-,-,-,-,-,-,-,-,-,-,-,-,-,-,-,-,-,-,-,-,-,-,-,-,-,-,-,-,-,-,-,-
2025-05-15 11:01:33.843,MovementStep,233,23,Female,-,0,Practice_EqualRatio,1,1,1,-,-,Pending,-,-,-,-,-,92.582,92.682,0.100,True,1,-7.50,0.50,-6.50,0.50,-,-,0.100,True,-,-,-,-,-,-,-,-,-,-,-,-,-,-,-,-,-,-,-,-,-,-,-,-,-,-,-,-,-,-,-,-
2025-05-15 11:01:33.931,MovementStart,233,23,Female,-,0,-,1,-,-,-,-,-,-,-,-,-,-,-,-,-,-,-,-6.50,0.50,-,-,-,-,-,-,-,-,-,-,-,-,-,-,-,-,-,-,-,-,-,-,-,-,-,-,-,-,-,-,-,-,-,-,-,-,-,-
2025-05-15 11:01:34.030,MovementStep,233,23,Female,-,0,Practice_EqualRatio,1,1,1,-,-,Pending,-,-,-,-,-,92.770,92.870,0.099,True,1,-6.50,0.50,-5.50,0.50,-,-,0.099,True,-,-,-,-,-,-,-,-,-,-,-,-,-,-,-,-,-,-,-,-,-,-,-,-,-,-,-,-,-,-,-,-
2025-05-15 11:01:34.085,MovementStart,233,23,Female,-,0,-,1,-,-,-,-,-,-,-,-,-,-,-,-,-,-,-,-5.50,0.50,-,-,-,-,-,-,-,-,-,-,-,-,-,-,-,-,-,-,-,-,-,-,-,-,-,-,-,-,-,-,-,-,-,-,-,-,-,-
2025-05-15 11:01:34.185,MovementStep,233,23,Female,-,0,Practice_EqualRatio,1,1,1,-,-,Pending,-,-,-,-,-,92.925,93.024,0.100,True,1,-5.50,0.50,-4.50,0.50,-,-,0.100,True,-,-,-,-,-,-,-,-,-,-,-,-,-,-,-,-,-,-,-,-,-,-,-,-,-,-,-,-,-,-,-,-
2025-05-15 11:01:34.241,MovementStart,233,23,Female,-,0,-,1,-,-,-,-,-,-,-,-,-,-,-,-,-,-,-,-4.50,0.50,-,-,-,-,-,-,-,-,-,-,-,-,-,-,-,-,-,-,-,-,-,-,-,-,-,-,-,-,-,-,-,-,-,-,-,-,-,-
2025-05-15 11:01:34.341,MovementStep,233,23,Female,-,0,Practice_EqualRatio,1,1,1,-,-,Pending,-,-,-,-,-,93.080,93.180,0.100,True,1,-4.50,0.50,-3.50,0.50,-,-,0.100,True,-,-,-,-,-,-,-,-,-,-,-,-,-,-,-,-,-,-,-,-,-,-,-,-,-,-,-,-,-,-,-,-
2025-05-15 11:01:34.402,MovementStart,233,23,Female,-,0,-,1,-,-,-,-,-,-,-,-,-,-,-,-,-,-,-,-3.50,0.50,-,-,-,-,-,-,-,-,-,-,-,-,-,-,-,-,-,-,-,-,-,-,-,-,-,-,-,-,-,-,-,-,-,-,-,-,-,-
2025-05-15 11:01:34.424,ScoreUpdate,233,23,Female,True,0,-,1,-,-,-,-,-,-,10,0,10,-,-,-,-,-,-,-,-,-,-,-,-,-,-,-,-,-,-,-,-,-,-,-,-,-,-,-,-,-,-,-,-,-,-,-,-,-,-,-,-,-,-,-,-,-,-
2025-05-15 11:01:34.425,CollisionTime,233,23,Female,True,0,-,1,-,-,-,-,-,-,-,-,-,0.678,-,-,-,-,-,-,-,-,-,-,-,-,-,-,-,-,-,-,-,-,-,-,-,-,-,-,-,-,-,-,-,-,-,-,-,-,-,-,-,-,-,-,-,-,-
2025-05-15 11:01:34.426,MovementDuration,233,23,Female,-,-,-,1,-,-,-,-,Success,-,-,-,-,0.678,-,-,-,-,-,-,-,-,-,-,-,-,-,-,-,-,-,-,-,-,-,-,-,-,-,-,-,-,-,-,-,-,-,-,-,-,-,-,-,-,-,-,-,-,-
2025-05-15 11:01:34.429,DecisionOutcome,233,23,Female,True,0,Practice_EqualRatio,1,1,1,Work,2.519,Success,True,10,0,0,0.678,-,-,-,-,-,-,-,-,-,5,0.659:right|0.848:right|1.002:right|1.158:right|1.319:right,0.136,False,0.1,-,-,0.00,0.00,0,0,-,-,-,-,-,-,-,-,-,-,-,-,-,-,-,-,-,-,-,-,-,-,-,-,-
2025-05-15 11:01:34.429,MovementComplete,233,23,Female,-,-,-,1,-,-,-,-,-,True,-,-,-,-,-,-,-,-,-,-,-,-,-,-,-,-,-,-,-,-,-,-,-,-,-,-,-,-,-,-,-,-,-,-,-,-,-,-,-,-,-,-,-,-,-,-,-,-,-
2025-05-15 11:01:34.430,RewardCollected,233,23,Female,-,-,-,1,-,-,-,-,-,-,-,-,-,-,-,-,-,-,-,-,-,-,-,-,-,-,-,-,-,-,-,-,-,-,-,-,-,-,-,-,-,-,-,-,-,-,-,-,-,-,-,-,-,-,-,-,-,-,-
2025-05-15 11:01:34.430,OutcomeType,233,23,Female,-,-,-,1,-,-,-,-,Success,-,-,-,-,-,-,-,-,-,-,-,-,-,-,-,-,-,-,-,-,-,-,-,-,-,-,-,-,-,-,-,-,-,-,-,-,-,-,-,-,-,-,-,-,-,-,-,-,-,-
2025-05-15 11:01:34.431,RewardCollected,233,23,Female,-,-,-,1,-,-,-,-,-,-,-,-,-,-,-,-,-,-,-,-,-,-,-,-,-,-,-,-,-,-,-,-,-,-,-,-,-,-,-,-,-,-,-,-,-,-,-,-,-,-,-,-,-,-,-,-,-,-,-
2025-05-15 11:01:34.431,ButtonPresses,233,23,Female,-,-,-,1,-,-,-,-,-,-,-,-,-,-,-,-,-,-,-,-,-,-,-,5,0.659:right|0.848:right|1.002:right|1.158:right|1.319:right,-,-,-,-,-,-,-,-,-,-,-,-,-,-,-,-,-,-,-,-,-,-,-,-,-,-,-,-,-,-,-,-,-,-
2025-05-15 11:01:34.502,MovementStep,233,23,Female,-,0,Practice_EqualRatio,1,1,1,-,-,Success,-,-,-,-,-,93.241,93.342,0.100,True,1,-3.50,0.50,-2.50,0.50,-,-,0.100,False,-,-,-,-,-,-,-,-,-,-,-,-,-,-,-,-,-,-,-,-,-,-,-,-,-,-,-,-,-,-,-,-
2025-05-15 11:01:38.254,InfoMessage,233,23,Female,-,-,-,-,-,-,-,-,-,-,-,-,-,-,-,-,-,-,-,-,-,-,-,-,-,-,-,-,-,-,-,-,-,-,-,-,-,-,-,-,-,-,-,-,-,-,-,-,-,-,-,-,-,-,-,-,-,-,-
2025-05-15 11:01:41.946,PracticeTrialStart,233,23,Female,True,0,-,2,-,-,-,-,-,-,-,-,-,-,-,-,-,-,-,-,-,-,-,-,-,-,-,-,-,-,-,-,-,-,-,-,-,-,-,-,-,-,-,-,-,-,-,-,-,-,-,-,-,-,-,-,-,-,-
2025-05-15 11:01:43.380,MovementStart,233,23,Female,-,0,-,2,-,-,-,-,-,-,-,-,-,-,-,-,-,-,-,-5.50,-2.50,-,-,-,-,-,-,-,-,-,-,-,-,-,-,-,-,-,-,-,-,-,-,-,-,-,-,-,-,-,-,-,-,-,-,-,-,-,-
2025-05-15 11:01:43.480,MovementStep,233,23,Female,-,0,Practice_EqualRatio,2,2,2,-,-,Pending,-,-,-,-,-,101.397,101.796,0.399,True,2,-5.50,-2.50,-4.50,-2.50,-,-,0.199,False,-,-,-,-,-,-,-,-,-,-,-,-,-,-,-,-,-,-,-,-,-,-,-,-,-,-,-,-,-,-,-,-
2025-05-15 11:01:43.722,MovementStart,233,23,Female,-,0,-,2,-,-,-,-,-,-,-,-,-,-,-,-,-,-,-,-4.50,-2.50,-,-,-,-,-,-,-,-,-,-,-,-,-,-,-,-,-,-,-,-,-,-,-,-,-,-,-,-,-,-,-,-,-,-,-,-,-,-
2025-05-15 11:01:43.822,MovementStep,233,23,Female,-,0,Practice_EqualRatio,2,2,2,-,-,Pending,-,-,-,-,-,101.871,102.138,0.267,True,2,-4.50,-2.50,-3.50,-2.50,-,-,0.134,False,-,-,-,-,-,-,-,-,-,-,-,-,-,-,-,-,-,-,-,-,-,-,-,-,-,-,-,-,-,-,-,-
2025-05-15 11:01:44.052,MovementStart,233,23,Female,-,0,-,2,-,-,-,-,-,-,-,-,-,-,-,-,-,-,-,-3.50,-2.50,-,-,-,-,-,-,-,-,-,-,-,-,-,-,-,-,-,-,-,-,-,-,-,-,-,-,-,-,-,-,-,-,-,-,-,-,-,-
2025-05-15 11:01:44.151,MovementStep,233,23,Female,-,0,Practice_EqualRatio,2,2,2,-,-,Pending,-,-,-,-,-,102.199,102.467,0.268,True,2,-3.51,-2.50,-2.50,-2.50,-,-,0.134,False,-,-,-,-,-,-,-,-,-,-,-,-,-,-,-,-,-,-,-,-,-,-,-,-,-,-,-,-,-,-,-,-
2025-05-15 11:01:44.380,MovementStart,233,23,Female,-,0,-,2,-,-,-,-,-,-,-,-,-,-,-,-,-,-,-,-2.50,-2.50,-,-,-,-,-,-,-,-,-,-,-,-,-,-,-,-,-,-,-,-,-,-,-,-,-,-,-,-,-,-,-,-,-,-,-,-,-,-
2025-05-15 11:01:44.480,MovementStep,233,23,Female,-,0,Practice_EqualRatio,2,2,2,-,-,Pending,-,-,-,-,-,102.523,102.797,0.273,True,2,-2.50,-2.50,-1.50,-2.50,-,-,0.137,False,-,-,-,-,-,-,-,-,-,-,-,-,-,-,-,-,-,-,-,-,-,-,-,-,-,-,-,-,-,-,-,-
2025-05-15 11:01:44.748,MovementStart,233,23,Female,-,0,-,2,-,-,-,-,-,-,-,-,-,-,-,-,-,-,-,-1.50,-2.50,-,-,-,-,-,-,-,-,-,-,-,-,-,-,-,-,-,-,-,-,-,-,-,-,-,-,-,-,-,-,-,-,-,-,-,-,-,-
2025-05-15 11:01:44.765,ScoreUpdate,233,23,Female,True,0,-,2,-,-,-,-,-,-,10,0,20,-,-,-,-,-,-,-,-,-,-,-,-,-,-,-,-,-,-,-,-,-,-,-,-,-,-,-,-,-,-,-,-,-,-,-,-,-,-,-,-,-,-,-,-,-,-
2025-05-15 11:01:44.766,CollisionTime,233,23,Female,True,0,-,2,-,-,-,-,-,-,-,-,-,1.683,-,-,-,-,-,-,-,-,-,-,-,-,-,-,-,-,-,-,-,-,-,-,-,-,-,-,-,-,-,-,-,-,-,-,-,-,-,-,-,-,-,-,-,-,-
2025-05-15 11:01:44.766,MovementDuration,233,23,Female,-,-,-,2,-,-,-,-,Success,-,-,-,-,1.683,-,-,-,-,-,-,-,-,-,-,-,-,-,-,-,-,-,-,-,-,-,-,-,-,-,-,-,-,-,-,-,-,-,-,-,-,-,-,-,-,-,-,-,-,-
2025-05-15 11:01:44.769,DecisionOutcome,233,23,Female,True,0,Practice_EqualRatio,2,2,2,Work,1.534,Success,True,10,0,0,1.683,-,-,-,-,-,-,-,-,-,10,1.029:right|1.328:right|1.502:right|1.670:right|1.831:right|2.000:right|2.154:right|2.328:right|2.494:right|2.696:right,0.168,False,0.1,-,-,0.00,0.00,0,0,-,-,-,-,-,-,-,-,-,-,-,-,-,-,-,-,-,-,-,-,-,-,-,-,-
2025-05-15 11:01:44.769,MovementComplete,233,23,Female,-,-,-,2,-,-,-,-,-,True,-,-,-,-,-,-,-,-,-,-,-,-,-,-,-,-,-,-,-,-,-,-,-,-,-,-,-,-,-,-,-,-,-,-,-,-,-,-,-,-,-,-,-,-,-,-,-,-,-
2025-05-15 11:01:44.770,RewardCollected,233,23,Female,-,-,-,2,-,-,-,-,-,-,-,-,-,-,-,-,-,-,-,-,-,-,-,-,-,-,-,-,-,-,-,-,-,-,-,-,-,-,-,-,-,-,-,-,-,-,-,-,-,-,-,-,-,-,-,-,-,-,-
2025-05-15 11:01:44.770,OutcomeType,233,23,Female,-,-,-,2,-,-,-,-,Success,-,-,-,-,-,-,-,-,-,-,-,-,-,-,-,-,-,-,-,-,-,-,-,-,-,-,-,-,-,-,-,-,-,-,-,-,-,-,-,-,-,-,-,-,-,-,-,-,-,-
2025-05-15 11:01:44.770,RewardCollected,233,23,Female,-,-,-,2,-,-,-,-,-,-,-,-,-,-,-,-,-,-,-,-,-,-,-,-,-,-,-,-,-,-,-,-,-,-,-,-,-,-,-,-,-,-,-,-,-,-,-,-,-,-,-,-,-,-,-,-,-,-,-
2025-05-15 11:01:44.771,ButtonPresses,233,23,Female,-,-,-,2,-,-,-,-,-,-,-,-,-,-,-,-,-,-,-,-,-,-,-,10,1.029:right|1.328:right|1.502:right|1.670:right|1.831:right|2.000:right|2.154:right|2.328:right|2.494:right|2.696:right,-,-,-,-,-,-,-,-,-,-,-,-,-,-,-,-,-,-,-,-,-,-,-,-,-,-,-,-,-,-,-,-,-,-
2025-05-15 11:01:44.848,MovementStep,233,23,Female,-,0,Practice_EqualRatio,2,2,2,-,-,Success,-,-,-,-,-,102.862,103.165,0.302,True,2,-1.50,-2.50,-0.50,-2.50,-,-,0.151,False,-,-,-,-,-,-,-,-,-,-,-,-,-,-,-,-,-,-,-,-,-,-,-,-,-,-,-,-,-,-,-,-
2025-05-15 11:01:47.230,InfoMessage,233,23,Female,-,-,-,-,-,-,-,-,-,-,-,-,-,-,-,-,-,-,-,-,-,-,-,-,-,-,-,-,-,-,-,-,-,-,-,-,-,-,-,-,-,-,-,-,-,-,-,-,-,-,-,-,-,-,-,-,-,-,-
2025-05-15 11:02:01.637,CHECK_QUESTION,233,23,Female,-,-,-,1,-,-,-,-,-,-,-,-,-,-,-,-,-,-,-,-,-,-,-,-,-,-,-,-,-,-,-,-,-,-,-,-,-,-,-,-,-,1,1,FruitPreference,"Choose preferred fruit between Grapes(Clone) and Apple(Clone)",F,T,False,7.081,-,-,-,-,-,-,-,-,-,-
2025-05-15 11:02:04.047,CHECK_QUESTION,233,23,Female,-,-,-,2,-,-,-,-,-,-,-,-,-,-,-,-,-,-,-,-,-,-,-,-,-,-,-,-,-,-,-,-,-,-,-,-,-,-,-,-,-,1,2,FruitPreference,"Choose preferred fruit between Apple(Clone) and Grapes(Clone)",F,T,False,0.426,-,-,-,-,-,-,-,-,-,-
2025-05-15 11:02:06.449,CHECK_QUESTION,233,23,Female,-,-,-,3,-,-,-,-,-,-,-,-,-,-,-,-,-,-,-,-,-,-,-,-,-,-,-,-,-,-,-,-,-,-,-,-,-,-,-,-,-,1,3,FruitPreference,"Choose preferred fruit between Grapes(Clone) and Watermelon(Clone)",T,T,True,0.407,-,-,-,-,-,-,-,-,-,-
2025-05-15 11:02:08.577,CHECK_QUESTION,233,23,Female,-,-,-,4,-,-,-,-,-,-,-,-,-,-,-,-,-,-,-,-,-,-,-,-,-,-,-,-,-,-,-,-,-,-,-,-,-,-,-,-,-,1,4,FruitPreference,"Choose preferred fruit between Watermelon(Clone) and Apple(Clone)",F,T,False,0.137,-,-,-,-,-,-,-,-,-,-
2025-05-15 11:02:10.916,CHECK_QUESTION,233,23,Female,-,-,-,5,-,-,-,-,-,-,-,-,-,-,-,-,-,-,-,-,-,-,-,-,-,-,-,-,-,-,-,-,-,-,-,-,-,-,-,-,-,1,5,FruitPreference,"Choose preferred fruit between Apple(Clone) and Watermelon(Clone)",T,T,True,0.356,-,-,-,-,-,-,-,-,-,-
2025-05-15 11:02:17.074,CHECK_QUESTION,233,23,Female,-,-,-,6,-,-,-,-,-,-,-,-,-,-,-,-,-,-,-,-,-,-,-,-,-,-,-,-,-,-,-,-,-,-,-,-,-,-,-,-,-,1,6,FruitPreference,"Choose preferred fruit between Grapes(Clone) and Watermelon(Clone)",F,T,False,4.173,-,-,-,-,-,-,-,-,-,-
2025-05-15 11:02:22.810,InfoMessage,233,23,Female,-,-,-,-,-,-,-,-,-,-,-,-,-,-,-,-,-,-,-,-,-,-,-,-,-,-,-,-,-,-,-,-,-,-,-,-,-,-,-,-,-,-,-,-,-,-,-,-,-,-,-,-,-,-,-,-,-,-,-
2025-05-15 11:02:28.330,PracticeTrialStart,233,23,Female,True,0,-,1,-,-,-,-,-,-,-,-,-,-,-,-,-,-,-,-,-,-,-,-,-,-,-,-,-,-,-,-,-,-,-,-,-,-,-,-,-,-,-,-,-,-,-,-,-,-,-,-,-,-,-,-,-,-,-
2025-05-15 11:02:29.753,MovementStart,233,23,Female,-,0,-,1,-,-,-,-,-,-,-,-,-,-,-,-,-,-,-,0.50,-0.50,-,-,-,-,-,-,-,-,-,-,-,-,-,-,-,-,-,-,-,-,-,-,-,-,-,-,-,-,-,-,-,-,-,-,-,-,-,-
2025-05-15 11:02:29.856,MovementStep,233,23,Female,-,0,Practice_HighLowRatio,1,2,2,-,-,Pending,-,-,-,-,-,146.579,146.932,0.353,True,2,0.50,-0.50,1.50,-0.50,-,-,0.177,False,-,-,-,-,-,-,-,-,-,-,-,-,-,-,-,-,-,-,-,-,-,-,-,-,-,-,-,-,-,-,-,-
2025-05-15 11:02:30.111,MovementStart,233,23,Female,-,0,-,1,-,-,-,-,-,-,-,-,-,-,-,-,-,-,-,1.50,-0.50,-,-,-,-,-,-,-,-,-,-,-,-,-,-,-,-,-,-,-,-,-,-,-,-,-,-,-,-,-,-,-,-,-,-,-,-,-,-
2025-05-15 11:02:30.211,MovementStep,233,23,Female,-,0,Practice_HighLowRatio,1,2,2,-,-,Pending,-,-,-,-,-,147.014,147.288,0.274,True,2,1.50,-0.50,2.50,-0.50,-,-,0.137,False,-,-,-,-,-,-,-,-,-,-,-,-,-,-,-,-,-,-,-,-,-,-,-,-,-,-,-,-,-,-,-,-
2025-05-15 11:02:30.453,MovementStart,233,23,Female,-,0,-,1,-,-,-,-,-,-,-,-,-,-,-,-,-,-,-,2.50,-0.50,-,-,-,-,-,-,-,-,-,-,-,-,-,-,-,-,-,-,-,-,-,-,-,-,-,-,-,-,-,-,-,-,-,-,-,-,-,-
2025-05-15 11:02:30.553,MovementStep,233,23,Female,-,0,Practice_HighLowRatio,1,2,2,-,-,Pending,-,-,-,-,-,147.361,147.629,0.268,True,2,2.50,-0.50,3.50,-0.50,-,-,0.134,False,-,-,-,-,-,-,-,-,-,-,-,-,-,-,-,-,-,-,-,-,-,-,-,-,-,-,-,-,-,-,-,-
2025-05-15 11:02:30.785,MovementStart,233,23,Female,-,0,-,1,-,-,-,-,-,-,-,-,-,-,-,-,-,-,-,3.50,-0.50,-,-,-,-,-,-,-,-,-,-,-,-,-,-,-,-,-,-,-,-,-,-,-,-,-,-,-,-,-,-,-,-,-,-,-,-,-,-
2025-05-15 11:02:30.885,MovementStep,233,23,Female,-,0,Practice_HighLowRatio,1,2,2,-,-,Pending,-,-,-,-,-,147.690,147.961,0.271,True,2,3.50,-0.50,4.50,-0.50,-,-,0.136,False,-,-,-,-,-,-,-,-,-,-,-,-,-,-,-,-,-,-,-,-,-,-,-,-,-,-,-,-,-,-,-,-
2025-05-15 11:02:31.109,MovementStart,233,23,Female,-,0,-,1,-,-,-,-,-,-,-,-,-,-,-,-,-,-,-,4.50,-0.50,-,-,-,-,-,-,-,-,-,-,-,-,-,-,-,-,-,-,-,-,-,-,-,-,-,-,-,-,-,-,-,-,-,-,-,-,-,-
2025-05-15 11:02:31.126,ScoreUpdate,233,23,Female,True,0,-,1,-,-,-,-,-,-,10,0,30,-,-,-,-,-,-,-,-,-,-,-,-,-,-,-,-,-,-,-,-,-,-,-,-,-,-,-,-,-,-,-,-,-,-,-,-,-,-,-,-,-,-,-,-,-,-
2025-05-15 11:02:31.126,CollisionTime,233,23,Female,True,0,-,1,-,-,-,-,-,-,-,-,-,1.621,-,-,-,-,-,-,-,-,-,-,-,-,-,-,-,-,-,-,-,-,-,-,-,-,-,-,-,-,-,-,-,-,-,-,-,-,-,-,-,-,-,-,-,-,-
2025-05-15 11:02:31.127,MovementDuration,233,23,Female,-,-,-,1,-,-,-,-,Success,-,-,-,-,1.621,-,-,-,-,-,-,-,-,-,-,-,-,-,-,-,-,-,-,-,-,-,-,-,-,-,-,-,-,-,-,-,-,-,-,-,-,-,-,-,-,-,-,-,-,-
2025-05-15 11:02:31.130,DecisionOutcome,233,23,Female,True,0,Practice_HighLowRatio,1,2,2,Work,3.360,Success,True,10,0,0,1.621,-,-,-,-,-,-,-,-,-,10,1.065:right|1.316:right|1.500:right|1.674:right|1.847:right|2.015:right|2.176:right|2.347:right|2.517:right|2.672:right,0.162,False,0.1,-,-,0.00,0.00,0,0,-,-,-,-,-,-,-,-,-,-,-,-,-,-,-,-,-,-,-,-,-,-,-,-,-
2025-05-15 11:02:31.130,MovementComplete,233,23,Female,-,-,-,1,-,-,-,-,-,True,-,-,-,-,-,-,-,-,-,-,-,-,-,-,-,-,-,-,-,-,-,-,-,-,-,-,-,-,-,-,-,-,-,-,-,-,-,-,-,-,-,-,-,-,-,-,-,-,-
2025-05-15 11:02:31.130,RewardCollected,233,23,Female,-,-,-,1,-,-,-,-,-,-,-,-,-,-,-,-,-,-,-,-,-,-,-,-,-,-,-,-,-,-,-,-,-,-,-,-,-,-,-,-,-,-,-,-,-,-,-,-,-,-,-,-,-,-,-,-,-,-,-
2025-05-15 11:02:31.131,OutcomeType,233,23,Female,-,-,-,1,-,-,-,-,Success,-,-,-,-,-,-,-,-,-,-,-,-,-,-,-,-,-,-,-,-,-,-,-,-,-,-,-,-,-,-,-,-,-,-,-,-,-,-,-,-,-,-,-,-,-,-,-,-,-,-
2025-05-15 11:02:31.131,RewardCollected,233,23,Female,-,-,-,1,-,-,-,-,-,-,-,-,-,-,-,-,-,-,-,-,-,-,-,-,-,-,-,-,-,-,-,-,-,-,-,-,-,-,-,-,-,-,-,-,-,-,-,-,-,-,-,-,-,-,-,-,-,-,-
2025-05-15 11:02:31.131,ButtonPresses,233,23,Female,-,-,-,1,-,-,-,-,-,-,-,-,-,-,-,-,-,-,-,-,-,-,-,10,1.065:right|1.316:right|1.500:right|1.674:right|1.847:right|2.015:right|2.176:right|2.347:right|2.517:right|2.672:right,-,-,-,-,-,-,-,-,-,-,-,-,-,-,-,-,-,-,-,-,-,-,-,-,-,-,-,-,-,-,-,-,-,-
2025-05-15 11:02:31.209,MovementStep,233,23,Female,-,0,Practice_HighLowRatio,1,2,2,-,-,Success,-,-,-,-,-,148.031,148.286,0.255,True,2,4.50,-0.50,5.50,-0.50,-,-,0.127,False,-,-,-,-,-,-,-,-,-,-,-,-,-,-,-,-,-,-,-,-,-,-,-,-,-,-,-,-,-,-,-,-
2025-05-15 11:02:33.620,InfoMessage,233,23,Female,-,-,-,-,-,-,-,-,-,-,-,-,-,-,-,-,-,-,-,-,-,-,-,-,-,-,-,-,-,-,-,-,-,-,-,-,-,-,-,-,-,-,-,-,-,-,-,-,-,-,-,-,-,-,-,-,-,-,-
2025-05-15 11:02:37.196,PracticeTrialStart,233,23,Female,True,0,-,2,-,-,-,-,-,-,-,-,-,-,-,-,-,-,-,-,-,-,-,-,-,-,-,-,-,-,-,-,-,-,-,-,-,-,-,-,-,-,-,-,-,-,-,-,-,-,-,-,-,-,-,-,-,-,-
2025-05-15 11:02:39.315,MovementStart,233,23,Female,-,0,-,2,-,-,-,-,-,-,-,-,-,-,-,-,-,-,-,6.50,3.50,-,-,-,-,-,-,-,-,-,-,-,-,-,-,-,-,-,-,-,-,-,-,-,-,-,-,-,-,-,-,-,-,-,-,-,-,-,-
2025-05-15 11:02:39.416,MovementStep,233,23,Female,-,0,Practice_HighLowRatio,2,2,2,-,-,Pending,-,-,-,-,-,155.716,155.964,0.248,True,2,6.50,3.50,5.50,3.50,-,-,0.124,False,-,-,-,-,-,-,-,-,-,-,-,-,-,-,-,-,-,-,-,-,-,-,-,-,-,-,-,-,-,-,-,-
2025-05-15 11:02:39.637,MovementStart,233,23,Female,-,0,-,2,-,-,-,-,-,-,-,-,-,-,-,-,-,-,-,5.50,3.50,-,-,-,-,-,-,-,-,-,-,-,-,-,-,-,-,-,-,-,-,-,-,-,-,-,-,-,-,-,-,-,-,-,-,-,-,-,-
2025-05-15 11:02:39.737,MovementStep,233,23,Female,-,0,Practice_HighLowRatio,2,2,2,-,-,Pending,-,-,-,-,-,156.025,156.284,0.259,True,2,5.50,3.50,4.50,3.50,-,-,0.130,False,-,-,-,-,-,-,-,-,-,-,-,-,-,-,-,-,-,-,-,-,-,-,-,-,-,-,-,-,-,-,-,-
2025-05-15 11:02:39.960,MovementStart,233,23,Female,-,0,-,2,-,-,-,-,-,-,-,-,-,-,-,-,-,-,-,4.50,3.50,-,-,-,-,-,-,-,-,-,-,-,-,-,-,-,-,-,-,-,-,-,-,-,-,-,-,-,-,-,-,-,-,-,-,-,-,-,-
2025-05-15 11:02:40.061,MovementStep,233,23,Female,-,0,Practice_HighLowRatio,2,2,2,-,-,Pending,-,-,-,-,-,156.352,156.609,0.256,True,2,4.50,3.50,3.50,3.50,-,-,0.128,False,-,-,-,-,-,-,-,-,-,-,-,-,-,-,-,-,-,-,-,-,-,-,-,-,-,-,-,-,-,-,-,-
2025-05-15 11:02:40.277,MovementStart,233,23,Female,-,0,-,2,-,-,-,-,-,-,-,-,-,-,-,-,-,-,-,3.50,3.50,-,-,-,-,-,-,-,-,-,-,-,-,-,-,-,-,-,-,-,-,-,-,-,-,-,-,-,-,-,-,-,-,-,-,-,-,-,-
2025-05-15 11:02:40.377,MovementStep,233,23,Female,-,0,Practice_HighLowRatio,2,2,2,-,-,Pending,-,-,-,-,-,156.654,156.925,0.271,True,2,3.50,3.50,2.50,3.50,-,-,0.136,False,-,-,-,-,-,-,-,-,-,-,-,-,-,-,-,-,-,-,-,-,-,-,-,-,-,-,-,-,-,-,-,-
2025-05-15 11:02:40.634,MovementStart,233,23,Female,-,0,-,2,-,-,-,-,-,-,-,-,-,-,-,-,-,-,-,2.50,3.50,-,-,-,-,-,-,-,-,-,-,-,-,-,-,-,-,-,-,-,-,-,-,-,-,-,-,-,-,-,-,-,-,-,-,-,-,-,-
2025-05-15 11:02:40.654,ScoreUpdate,233,23,Female,True,0,-,2,-,-,-,-,-,-,10,0,40,-,-,-,-,-,-,-,-,-,-,-,-,-,-,-,-,-,-,-,-,-,-,-,-,-,-,-,-,-,-,-,-,-,-,-,-,-,-,-,-,-,-,-,-,-,-
2025-05-15 11:02:40.654,CollisionTime,233,23,Female,True,0,-,2,-,-,-,-,-,-,-,-,-,1.853,-,-,-,-,-,-,-,-,-,-,-,-,-,-,-,-,-,-,-,-,-,-,-,-,-,-,-,-,-,-,-,-,-,-,-,-,-,-,-,-,-,-,-,-,-
2025-05-15 11:02:40.655,MovementDuration,233,23,Female,-,-,-,2,-,-,-,-,Success,-,-,-,-,1.853,-,-,-,-,-,-,-,-,-,-,-,-,-,-,-,-,-,-,-,-,-,-,-,-,-,-,-,-,-,-,-,-,-,-,-,-,-,-,-,-,-,-,-,-,-
2025-05-15 11:02:40.658,DecisionOutcome,233,23,Female,True,0,Practice_HighLowRatio,2,2,2,Work,1.419,Success,True,10,0,0,1.853,-,-,-,-,-,-,-,-,-,11,1.495:right|1.864:left|2.012:left|2.174:left|2.333:left|2.501:left|2.657:left|2.803:left|2.974:left|3.150:left|3.331:left,0.168,False,0.1,-,-,0.00,0.00,0,0,-,-,-,-,-,-,-,-,-,-,-,-,-,-,-,-,-,-,-,-,-,-,-,-,-
2025-05-15 11:02:40.658,MovementComplete,233,23,Female,-,-,-,2,-,-,-,-,-,True,-,-,-,-,-,-,-,-,-,-,-,-,-,-,-,-,-,-,-,-,-,-,-,-,-,-,-,-,-,-,-,-,-,-,-,-,-,-,-,-,-,-,-,-,-,-,-,-,-
2025-05-15 11:02:40.659,RewardCollected,233,23,Female,-,-,-,2,-,-,-,-,-,-,-,-,-,-,-,-,-,-,-,-,-,-,-,-,-,-,-,-,-,-,-,-,-,-,-,-,-,-,-,-,-,-,-,-,-,-,-,-,-,-,-,-,-,-,-,-,-,-,-
2025-05-15 11:02:40.659,OutcomeType,233,23,Female,-,-,-,2,-,-,-,-,Success,-,-,-,-,-,-,-,-,-,-,-,-,-,-,-,-,-,-,-,-,-,-,-,-,-,-,-,-,-,-,-,-,-,-,-,-,-,-,-,-,-,-,-,-,-,-,-,-,-,-
2025-05-15 11:02:40.659,RewardCollected,233,23,Female,-,-,-,2,-,-,-,-,-,-,-,-,-,-,-,-,-,-,-,-,-,-,-,-,-,-,-,-,-,-,-,-,-,-,-,-,-,-,-,-,-,-,-,-,-,-,-,-,-,-,-,-,-,-,-,-,-,-,-
2025-05-15 11:02:40.660,ButtonPresses,233,23,Female,-,-,-,2,-,-,-,-,-,-,-,-,-,-,-,-,-,-,-,-,-,-,-,11,1.495:right|1.864:left|2.012:left|2.174:left|2.333:left|2.501:left|2.657:left|2.803:left|2.974:left|3.150:left|3.331:left,-,-,-,-,-,-,-,-,-,-,-,-,-,-,-,-,-,-,-,-,-,-,-,-,-,-,-,-,-,-,-,-,-,-
2025-05-15 11:02:40.734,MovementStep,233,23,Female,-,0,Practice_HighLowRatio,2,2,2,-,-,Success,-,-,-,-,-,157.001,157.282,0.281,True,2,2.50,3.50,1.50,3.50,-,-,0.140,False,-,-,-,-,-,-,-,-,-,-,-,-,-,-,-,-,-,-,-,-,-,-,-,-,-,-,-,-,-,-,-,-
2025-05-15 11:02:42.481,InfoMessage,233,23,Female,-,-,-,-,-,-,-,-,-,-,-,-,-,-,-,-,-,-,-,-,-,-,-,-,-,-,-,-,-,-,-,-,-,-,-,-,-,-,-,-,-,-,-,-,-,-,-,-,-,-,-,-,-,-,-,-,-,-,-
2025-05-15 11:02:42.938,DecisionOutcome,233,23,Female,True,0,Practice_HighLowRatio,3,1,1,Skip,0.467,Skip,False,0,0,0,0.000,-,-,-,-,-,-,-,-,-,0,-,-1.000,False,0.1,Skip,3,0.00,0.00,0,0,-,-,-,-,-,-,-,-,-,-,-,-,-,-,-,-,-,-,-,-,-,-,-,-,-
2025-05-15 11:02:42.940,ScoreUpdate,233,23,Female,True,0,-,3,-,-,-,-,-,-,0,0,40,-,-,-,-,-,-,-,-,-,-,-,-,-,-,-,-,-,-,-,-,-,-,-,-,-,-,-,-,-,-,-,-,-,-,-,-,-,-,-,-,-,-,-,-,-,-
2025-05-15 11:02:48.030,InfoMessage,233,23,Female,-,-,-,-,-,-,-,-,-,-,-,-,-,-,-,-,-,-,-,-,-,-,-,-,-,-,-,-,-,-,-,-,-,-,-,-,-,-,-,-,-,-,-,-,-,-,-,-,-,-,-,-,-,-,-,-,-,-,-
2025-05-15 11:02:50.997,PracticeTrialStart,233,23,Female,True,0,-,1,-,-,-,-,-,-,-,-,-,-,-,-,-,-,-,-,-,-,-,-,-,-,-,-,-,-,-,-,-,-,-,-,-,-,-,-,-,-,-,-,-,-,-,-,-,-,-,-,-,-,-,-,-,-,-
2025-05-15 11:02:51.863,MovementStart,233,23,Female,-,0,-,1,-,-,-,-,-,-,-,-,-,-,-,-,-,-,-,4.50,-3.50,-,-,-,-,-,-,-,-,-,-,-,-,-,-,-,-,-,-,-,-,-,-,-,-,-,-,-,-,-,-,-,-,-,-,-,-,-,-
2025-05-15 11:02:51.963,MovementStep,233,23,Female,-,0,Practice_LowHighRatio,1,2,2,-,-,Pending,-,-,-,-,-,167.274,167.550,0.277,True,2,4.50,-3.50,3.50,-3.50,-,-,0.138,False,-,-,-,-,-,-,-,-,-,-,-,-,-,-,-,-,-,-,-,-,-,-,-,-,-,-,-,-,-,-,-,-
2025-05-15 11:02:52.211,MovementStart,233,23,Female,-,0,-,1,-,-,-,-,-,-,-,-,-,-,-,-,-,-,-,3.50,-3.50,-,-,-,-,-,-,-,-,-,-,-,-,-,-,-,-,-,-,-,-,-,-,-,-,-,-,-,-,-,-,-,-,-,-,-,-,-,-
2025-05-15 11:02:52.311,MovementStep,233,23,Female,-,0,Practice_LowHighRatio,1,2,2,-,-,Pending,-,-,-,-,-,167.615,167.898,0.283,True,2,3.50,-3.50,2.50,-3.50,-,-,0.141,False,-,-,-,-,-,-,-,-,-,-,-,-,-,-,-,-,-,-,-,-,-,-,-,-,-,-,-,-,-,-,-,-
2025-05-15 11:02:52.587,MovementStart,233,23,Female,-,0,-,1,-,-,-,-,-,-,-,-,-,-,-,-,-,-,-,2.50,-3.50,-,-,-,-,-,-,-,-,-,-,-,-,-,-,-,-,-,-,-,-,-,-,-,-,-,-,-,-,-,-,-,-,-,-,-,-,-,-
2025-05-15 11:02:52.686,MovementStep,233,23,Female,-,0,Practice_LowHighRatio,1,2,2,-,-,Pending,-,-,-,-,-,167.984,168.273,0.289,True,2,2.50,-3.50,1.50,-3.50,-,-,0.145,False,-,-,-,-,-,-,-,-,-,-,-,-,-,-,-,-,-,-,-,-,-,-,-,-,-,-,-,-,-,-,-,-
2025-05-15 11:02:52.927,MovementStart,233,23,Female,-,0,-,1,-,-,-,-,-,-,-,-,-,-,-,-,-,-,-,1.50,-3.50,-,-,-,-,-,-,-,-,-,-,-,-,-,-,-,-,-,-,-,-,-,-,-,-,-,-,-,-,-,-,-,-,-,-,-,-,-,-
2025-05-15 11:02:53.027,MovementStep,233,23,Female,-,0,Practice_LowHighRatio,1,2,2,-,-,Pending,-,-,-,-,-,168.350,168.614,0.264,True,2,1.50,-3.50,0.50,-3.50,-,-,0.132,False,-,-,-,-,-,-,-,-,-,-,-,-,-,-,-,-,-,-,-,-,-,-,-,-,-,-,-,-,-,-,-,-
2025-05-15 11:02:53.285,MovementStart,233,23,Female,-,0,-,1,-,-,-,-,-,-,-,-,-,-,-,-,-,-,-,0.50,-3.50,-,-,-,-,-,-,-,-,-,-,-,-,-,-,-,-,-,-,-,-,-,-,-,-,-,-,-,-,-,-,-,-,-,-,-,-,-,-
2025-05-15 11:02:53.315,ScoreUpdate,233,23,Female,True,0,-,1,-,-,-,-,-,-,10,0,50,-,-,-,-,-,-,-,-,-,-,-,-,-,-,-,-,-,-,-,-,-,-,-,-,-,-,-,-,-,-,-,-,-,-,-,-,-,-,-,-,-,-,-,-,-,-
2025-05-15 11:02:53.315,CollisionTime,233,23,Female,True,0,-,1,-,-,-,-,-,-,-,-,-,1.626,-,-,-,-,-,-,-,-,-,-,-,-,-,-,-,-,-,-,-,-,-,-,-,-,-,-,-,-,-,-,-,-,-,-,-,-,-,-,-,-,-,-,-,-,-
2025-05-15 11:02:53.316,MovementDuration,233,23,Female,-,-,-,1,-,-,-,-,Success,-,-,-,-,1.626,-,-,-,-,-,-,-,-,-,-,-,-,-,-,-,-,-,-,-,-,-,-,-,-,-,-,-,-,-,-,-,-,-,-,-,-,-,-,-,-,-,-,-,-,-
2025-05-15 11:02:53.319,DecisionOutcome,233,23,Female,True,0,Practice_LowHighRatio,1,2,2,Work,0.731,Success,True,10,0,0,1.626,-,-,-,-,-,-,-,-,-,10,0.580:left|0.756:left|0.922:left|1.104:left|1.291:left|1.481:left|1.656:left|1.820:left|1.990:left|2.179:left,0.163,False,0.1,-,-,0.00,0.00,0,0,-,-,-,-,-,-,-,-,-,-,-,-,-,-,-,-,-,-,-,-,-,-,-,-,-
2025-05-15 11:02:53.319,MovementComplete,233,23,Female,-,-,-,1,-,-,-,-,-,True,-,-,-,-,-,-,-,-,-,-,-,-,-,-,-,-,-,-,-,-,-,-,-,-,-,-,-,-,-,-,-,-,-,-,-,-,-,-,-,-,-,-,-,-,-,-,-,-,-
2025-05-15 11:02:53.320,RewardCollected,233,23,Female,-,-,-,1,-,-,-,-,-,-,-,-,-,-,-,-,-,-,-,-,-,-,-,-,-,-,-,-,-,-,-,-,-,-,-,-,-,-,-,-,-,-,-,-,-,-,-,-,-,-,-,-,-,-,-,-,-,-,-
2025-05-15 11:02:53.320,OutcomeType,233,23,Female,-,-,-,1,-,-,-,-,Success,-,-,-,-,-,-,-,-,-,-,-,-,-,-,-,-,-,-,-,-,-,-,-,-,-,-,-,-,-,-,-,-,-,-,-,-,-,-,-,-,-,-,-,-,-,-,-,-,-,-
2025-05-15 11:02:53.320,RewardCollected,233,23,Female,-,-,-,1,-,-,-,-,-,-,-,-,-,-,-,-,-,-,-,-,-,-,-,-,-,-,-,-,-,-,-,-,-,-,-,-,-,-,-,-,-,-,-,-,-,-,-,-,-,-,-,-,-,-,-,-,-,-,-
2025-05-15 11:02:53.321,ButtonPresses,233,23,Female,-,-,-,1,-,-,-,-,-,-,-,-,-,-,-,-,-,-,-,-,-,-,-,10,0.580:left|0.756:left|0.922:left|1.104:left|1.291:left|1.481:left|1.656:left|1.820:left|1.990:left|2.179:left,-,-,-,-,-,-,-,-,-,-,-,-,-,-,-,-,-,-,-,-,-,-,-,-,-,-,-,-,-,-,-,-,-,-
2025-05-15 11:02:53.386,MovementStep,233,23,Female,-,0,Practice_LowHighRatio,1,2,2,-,-,Success,-,-,-,-,-,168.683,168.973,0.290,True,2,0.50,-3.50,-0.50,-3.50,-,-,0.145,False,-,-,-,-,-,-,-,-,-,-,-,-,-,-,-,-,-,-,-,-,-,-,-,-,-,-,-,-,-,-,-,-
2025-05-15 11:02:56.281,InfoMessage,233,23,Female,-,-,-,-,-,-,-,-,-,-,-,-,-,-,-,-,-,-,-,-,-,-,-,-,-,-,-,-,-,-,-,-,-,-,-,-,-,-,-,-,-,-,-,-,-,-,-,-,-,-,-,-,-,-,-,-,-,-,-
2025-05-15 11:02:59.572,PracticeTrialStart,233,23,Female,True,0,-,2,-,-,-,-,-,-,-,-,-,-,-,-,-,-,-,-,-,-,-,-,-,-,-,-,-,-,-,-,-,-,-,-,-,-,-,-,-,-,-,-,-,-,-,-,-,-,-,-,-,-,-,-,-,-,-
2025-05-15 11:03:02.798,MovementStart,233,23,Female,-,0,-,2,-,-,-,-,-,-,-,-,-,-,-,-,-,-,-,2.50,3.50,-,-,-,-,-,-,-,-,-,-,-,-,-,-,-,-,-,-,-,-,-,-,-,-,-,-,-,-,-,-,-,-,-,-,-,-,-,-
2025-05-15 11:03:02.897,MovementStep,233,23,Female,-,0,Practice_LowHighRatio,2,3,3,-,-,Pending,-,-,-,-,-,177.497,177.938,0.441,True,3,2.50,3.50,3.50,3.50,-,-,0.147,False,-,-,-,-,-,-,-,-,-,-,-,-,-,-,-,-,-,-,-,-,-,-,-,-,-,-,-,-,-,-,-,-
2025-05-15 11:03:03.251,MovementStart,233,23,Female,-,0,-,2,-,-,-,-,-,-,-,-,-,-,-,-,-,-,-,3.50,3.50,-,-,-,-,-,-,-,-,-,-,-,-,-,-,-,-,-,-,-,-,-,-,-,-,-,-,-,-,-,-,-,-,-,-,-,-,-,-
2025-05-15 11:03:03.352,MovementStep,233,23,Female,-,0,Practice_LowHighRatio,2,3,3,-,-,Pending,-,-,-,-,-,177.986,178.392,0.406,True,3,3.49,3.50,4.50,3.50,-,-,0.135,False,-,-,-,-,-,-,-,-,-,-,-,-,-,-,-,-,-,-,-,-,-,-,-,-,-,-,-,-,-,-,-,-
2025-05-15 11:03:03.720,MovementStart,233,23,Female,-,0,-,2,-,-,-,-,-,-,-,-,-,-,-,-,-,-,-,4.50,3.50,-,-,-,-,-,-,-,-,-,-,-,-,-,-,-,-,-,-,-,-,-,-,-,-,-,-,-,-,-,-,-,-,-,-,-,-,-,-
2025-05-15 11:03:03.821,MovementStep,233,23,Female,-,0,Practice_LowHighRatio,2,3,3,-,-,Pending,-,-,-,-,-,178.442,178.861,0.419,True,3,4.50,3.50,5.50,3.50,-,-,0.140,False,-,-,-,-,-,-,-,-,-,-,-,-,-,-,-,-,-,-,-,-,-,-,-,-,-,-,-,-,-,-,-,-
2025-05-15 11:03:04.194,MovementStart,233,23,Female,-,0,-,2,-,-,-,-,-,-,-,-,-,-,-,-,-,-,-,5.50,3.50,-,-,-,-,-,-,-,-,-,-,-,-,-,-,-,-,-,-,-,-,-,-,-,-,-,-,-,-,-,-,-,-,-,-,-,-,-,-
2025-05-15 11:03:04.294,MovementStep,233,23,Female,-,0,Practice_LowHighRatio,2,3,3,-,-,Pending,-,-,-,-,-,178.917,179.335,0.418,True,3,5.50,3.50,6.50,3.50,-,-,0.139,False,-,-,-,-,-,-,-,-,-,-,-,-,-,-,-,-,-,-,-,-,-,-,-,-,-,-,-,-,-,-,-,-
2025-05-15 11:03:04.660,MovementDuration,233,23,Female,-,-,-,2,-,-,-,-,Failure,-,-,-,-,2.415,-,-,-,-,-,-,-,-,-,-,-,-,-,-,-,-,-,-,-,-,-,-,-,-,-,-,-,-,-,-,-,-,-,-,-,-,-,-,-,-,-,-,-,-,-
2025-05-15 11:03:04.661,OutcomeType,233,23,Female,-,-,-,2,-,-,-,-,Failure,-,-,-,-,-,-,-,-,-,-,-,-,-,-,-,-,-,-,-,-,-,-,-,-,-,-,-,-,-,-,-,-,-,-,-,-,-,-,-,-,-,-,-,-,-,-,-,-,-,-
2025-05-15 11:03:04.661,RewardCollected,233,23,Female,-,-,-,2,-,-,-,-,-,-,-,-,-,-,-,-,-,-,-,-,-,-,-,-,-,-,-,-,-,-,-,-,-,-,-,-,-,-,-,-,-,-,-,-,-,-,-,-,-,-,-,-,-,-,-,-,-,-,-
2025-05-15 11:03:04.661,ButtonPresses,233,23,Female,-,-,-,2,-,-,-,-,-,-,-,-,-,-,-,-,-,-,-,-,-,-,-,15,2.567:left|2.779:right|2.960:right|3.120:right|3.268:right|3.420:right|3.574:right|3.724:right|3.886:right|4.042:right|4.199:right|4.358:right|4.517:right|4.676:right|4.841:right,-,-,-,-,-,-,-,-,-,-,-,-,-,-,-,-,-,-,-,-,-,-,-,-,-,-,-,-,-,-,-,-,-,-
2025-05-15 11:03:04.664,DecisionOutcome,233,23,Female,True,0,Practice_LowHighRatio,2,3,3,Work,1.109,Failure,False,0,0,0,2.415,-,-,-,-,-,-,-,-,-,15,2.567:left|2.779:right|2.960:right|3.120:right|3.268:right|3.420:right|3.574:right|3.724:right|3.886:right|4.042:right|4.199:right|4.358:right|4.517:right|4.676:right|4.841:right,0.161,False,0.1,-,-,0.00,0.00,0,0,-,-,-,-,-,-,-,-,-,-,-,-,-,-,-,-,-,-,-,-,-,-,-,-,-
2025-05-15 11:03:04.665,ButtonPresses,233,23,Female,-,-,-,2,-,-,-,-,-,-,-,-,-,-,-,-,-,-,-,-,-,-,-,15,2.567:left|2.779:right|2.960:right|3.120:right|3.268:right|3.420:right|3.574:right|3.724:right|3.886:right|4.042:right|4.199:right|4.358:right|4.517:right|4.676:right|4.841:right,-,-,-,-,-,-,-,-,-,-,-,-,-,-,-,-,-,-,-,-,-,-,-,-,-,-,-,-,-,-,-,-,-,-
2025-05-15 11:03:04.665,MovementComplete,233,23,Female,-,-,-,2,-,-,-,-,-,False,-,-,-,-,-,-,-,-,-,-,-,-,-,-,-,-,-,-,-,-,-,-,-,-,-,-,-,-,-,-,-,-,-,-,-,-,-,-,-,-,-,-,-,-,-,-,-,-,-
2025-05-15 11:03:04.666,RewardCollected,233,23,Female,-,-,-,2,-,-,-,-,-,-,-,-,-,-,-,-,-,-,-,-,-,-,-,-,-,-,-,-,-,-,-,-,-,-,-,-,-,-,-,-,-,-,-,-,-,-,-,-,-,-,-,-,-,-,-,-,-,-,-
2025-05-15 11:03:04.866,InfoMessage,233,23,Female,-,-,-,-,-,-,-,-,-,-,-,-,-,-,-,-,-,-,-,-,-,-,-,-,-,-,-,-,-,-,-,-,-,-,-,-,-,-,-,-,-,-,-,-,-,-,-,-,-,-,-,-,-,-,-,-,-,-,-
2025-05-15 11:03:05.998,DecisionOutcome,233,23,Female,True,0,Practice_LowHighRatio,3,3,3,Skip,1.141,Skip,False,0,0,0,0.000,-,-,-,-,-,-,-,-,-,0,-,-1.000,False,0.1,Skip,3,0.00,0.00,0,0,-,-,-,-,-,-,-,-,-,-,-,-,-,-,-,-,-,-,-,-,-,-,-,-,-
2025-05-15 11:03:05.999,ScoreUpdate,233,23,Female,True,0,-,3,-,-,-,-,-,-,0,0,50,-,-,-,-,-,-,-,-,-,-,-,-,-,-,-,-,-,-,-,-,-,-,-,-,-,-,-,-,-,-,-,-,-,-,-,-,-,-,-,-,-,-,-,-,-,-
2025-05-15 11:03:59.157,CHECK_QUESTION,233,23,Female,-,-,-,1,-,-,-,-,-,-,-,-,-,-,-,-,-,-,-,-,-,-,-,-,-,-,-,-,-,-,-,-,-,-,-,-,-,-,-,-,-,1,1,FruitPreference,"Choose preferred fruit between Apple(Clone) and Watermelon(Clone)",T,T,True,44.260,-,-,-,-,-,-,-,-,-,-
2025-05-15 11:04:01.516,CHECK_QUESTION,233,23,Female,-,-,-,2,-,-,-,-,-,-,-,-,-,-,-,-,-,-,-,-,-,-,-,-,-,-,-,-,-,-,-,-,-,-,-,-,-,-,-,-,-,1,2,FruitPreference,"Choose preferred fruit between Apple(Clone) and Grapes(Clone)",T,T,True,0.372,-,-,-,-,-,-,-,-,-,-
2025-05-15 11:04:04.254,CHECK_QUESTION,233,23,Female,-,-,-,3,-,-,-,-,-,-,-,-,-,-,-,-,-,-,-,-,-,-,-,-,-,-,-,-,-,-,-,-,-,-,-,-,-,-,-,-,-,1,3,FruitPreference,"Choose preferred fruit between Grapes(Clone) and Watermelon(Clone)",T,T,True,0.751,-,-,-,-,-,-,-,-,-,-
2025-05-15 11:04:06.851,CHECK_QUESTION,233,23,Female,-,-,-,4,-,-,-,-,-,-,-,-,-,-,-,-,-,-,-,-,-,-,-,-,-,-,-,-,-,-,-,-,-,-,-,-,-,-,-,-,-,1,4,FruitPreference,"Choose preferred fruit between Grapes(Clone) and Apple(Clone)",T,T,True,0.608,-,-,-,-,-,-,-,-,-,-
2025-05-15 11:04:10.198,CHECK_QUESTION,233,23,Female,-,-,-,5,-,-,-,-,-,-,-,-,-,-,-,-,-,-,-,-,-,-,-,-,-,-,-,-,-,-,-,-,-,-,-,-,-,-,-,-,-,1,5,FruitPreference,"Choose preferred fruit between Watermelon(Clone) and Grapes(Clone)",T,T,True,1.353,-,-,-,-,-,-,-,-,-,-
2025-05-15 11:04:12.713,CHECK_QUESTION,233,23,Female,-,-,-,6,-,-,-,-,-,-,-,-,-,-,-,-,-,-,-,-,-,-,-,-,-,-,-,-,-,-,-,-,-,-,-,-,-,-,-,-,-,1,6,FruitPreference,"Choose preferred fruit between Apple(Clone) and Watermelon(Clone)",T,T,True,0.529,-,-,-,-,-,-,-,-,-,-
2025-05-15 11:04:14.704,ExperimentEnd,233,23,Female,-,-,-,-,-,-,-,-,-,-,-,-,-,-,-,-,-,-,-,-,-,-,-,-,-,-,-,-,-,-,-,-,-,-,-,-,-,-,-,-,-,-,-,-,-,-,-,-,-,-,-,-,-,-,-,-,-,-,-
2025-05-15 11:04:17.082,CHECK_QUESTION,233,23,Female,-,-,-,1,-,-,-,-,-,-,-,-,-,-,-,-,-,-,-,-,-,-,-,-,-,-,-,-,-,-,-,-,-,-,-,-,-,-,-,-,-,2,1,FruitFrequency,How often did you see this Apple on Green island?,T,T,True,2.056,-,-,-,-,-,-,-,-,-,-
2025-05-15 11:04:20.845,CHECK_QUESTION,233,23,Female,-,-,-,2,-,-,-,-,-,-,-,-,-,-,-,-,-,-,-,-,-,-,-,-,-,-,-,-,-,-,-,-,-,-,-,-,-,-,-,-,-,2,2,FruitFrequency,How often did you see this Watermelon on Green island?,T,T,True,1.777,-,-,-,-,-,-,-,-,-,-
2025-05-15 11:04:23.569,CHECK_QUESTION,233,23,Female,-,-,-,3,-,-,-,-,-,-,-,-,-,-,-,-,-,-,-,-,-,-,-,-,-,-,-,-,-,-,-,-,-,-,-,-,-,-,-,-,-,2,3,FruitFrequency,How often did you see this Grapes on Green island?,T,T,True,0.742,-,-,-,-,-,-,-,-,-,-
2025-05-15 11:04:27.005,CHECK_QUESTION,233,23,Female,-,-,-,4,-,-,-,-,-,-,-,-,-,-,-,-,-,-,-,-,-,-,-,-,-,-,-,-,-,-,-,-,-,-,-,-,-,-,-,-,-,2,4,FruitFrequency,How often did you see this Apple on Blue island?,T,T,True,1.436,-,-,-,-,-,-,-,-,-,-
2025-05-15 11:04:29.632,CHECK_QUESTION,233,23,Female,-,-,-,5,-,-,-,-,-,-,-,-,-,-,-,-,-,-,-,-,-,-,-,-,-,-,-,-,-,-,-,-,-,-,-,-,-,-,-,-,-,2,5,FruitFrequency,How often did you see this Grapes on Blue island?,T,T,True,0.644,-,-,-,-,-,-,-,-,-,-
2025-05-15 11:04:32.745,CHECK_QUESTION,233,23,Female,-,-,-,6,-,-,-,-,-,-,-,-,-,-,-,-,-,-,-,-,-,-,-,-,-,-,-,-,-,-,-,-,-,-,-,-,-,-,-,-,-,2,6,FruitFrequency,How often did you see this Watermelon on Blue island?,T,T,True,1.117,-,-,-,-,-,-,-,-,-,-
2025-05-15 11:04:34.728,ExperimentEnd,233,23,Female,-,-,-,-,-,-,-,-,-,-,-,-,-,-,-,-,-,-,-,-,-,-,-,-,-,-,-,-,-,-,-,-,-,-,-,-,-,-,-,-,-,-,-,-,-,-,-,-,-,-,-,-,-,-,-,-,-,-,-
2025-05-15 11:04:35.582,CHECK_QUESTION,233,23,Female,-,-,-,1,-,-,-,-,-,-,-,-,-,-,-,-,-,-,-,-,-,-,-,-,-,-,-,-,-,-,-,-,-,-,-,-,-,-,-,-,-,3,1,ComprehensionQuiz,Which of the two FRUITS needs more presses to get?,T,T,True,0.666,-,-,-,-,-,-,-,-,-,-
2025-05-15 11:04:40.567,CHECK_QUESTION,233,23,Female,-,-,-,2,-,-,-,-,-,-,-,-,-,-,-,-,-,-,-,-,-,-,-,-,-,-,-,-,-,-,-,-,-,-,-,-,-,-,-,-,-,3,2,ComprehensionQuiz,Your objective in the game is to:,T,T,True,0.997,-,-,-,-,-,-,-,-,-,-
2025-05-15 11:04:45.278,CHECK_QUESTION,233,23,Female,-,-,-,3,-,-,-,-,-,-,-,-,-,-,-,-,-,-,-,-,-,-,-,-,-,-,-,-,-,-,-,-,-,-,-,-,-,-,-,-,-,3,3,ComprehensionQuiz,You will visit two islands during your time in the game. What can differ between the two islands?,T,T,True,0.728,-,-,-,-,-,-,-,-,-,-
2025-05-15 11:04:50.172,CHECK_QUESTION,233,23,Female,-,-,-,4,-,-,-,-,-,-,-,-,-,-,-,-,-,-,-,-,-,-,-,-,-,-,-,-,-,-,-,-,-,-,-,-,-,-,-,-,-,3,4,ComprehensionQuiz,What does it mean when you successfully collect a fruit?,T,T,True,0.899,-,-,-,-,-,-,-,-,-,-
2025-05-15 11:04:54.180,CHECK_PHASE_COMPLETE,233,23,Female,-,-,-,-,-,-,-,-,-,-,-,-,-,-,-,-,-,-,-,-,-,-,-,-,-,-,-,-,-,-,-,-,-,-,-,-,-,-,-,-,-,3,-,-,-,-,-,-,-,6,6,4,16,-,-,-,-,-,-
2025-05-15 11:07:31.189,TrialStart,233,23,Female,-,1,-,1,-,-,-,-,-,-,-,-,-,-,-,-,-,-,-,-,-,-,-,-,-,-,-,-,-,-,-,-,-,-,-,-,-,-,-,-,-,-,-,-,-,-,-,-,-,-,-,-,-,-,-,-,-,-,-
2025-05-15 11:07:32.980,InfoMessage,233,23,Female,-,-,-,-,-,-,-,-,-,-,-,-,-,-,-,-,-,-,-,-,-,-,-,-,-,-,-,-,-,-,-,-,-,-,-,-,-,-,-,-,-,-,-,-,-,-,-,-,-,-,-,-,-,-,-,-,-,-,-
2025-05-15 11:07:33.677,MovementStart,233,23,Female,-,1,-,1,-,-,-,-,-,-,-,-,-,-,-,-,-,-,-,-5.50,-3.50,-,-,-,-,-,-,-,-,-,-,-,-,-,-,-,-,-,-,-,-,-,-,-,-,-,-,-,-,-,-,-,-,-,-,-,-,-,-
2025-05-15 11:07:33.777,MovementStep,233,23,Female,-,1,HighLowRatio,1,1,1,-,-,Pending,-,-,-,-,-,445.380,445.480,0.100,True,1,-5.50,-3.50,-4.50,-3.50,-,-,0.100,True,-,-,-,-,-,-,-,-,-,-,-,-,-,-,-,-,-,-,-,-,-,-,-,-,-,-,-,-,-,-,-,-
2025-05-15 11:07:33.866,MovementStart,233,23,Female,-,1,-,1,-,-,-,-,-,-,-,-,-,-,-,-,-,-,-,-4.50,-3.50,-,-,-,-,-,-,-,-,-,-,-,-,-,-,-,-,-,-,-,-,-,-,-,-,-,-,-,-,-,-,-,-,-,-,-,-,-,-
2025-05-15 11:07:33.965,MovementStep,233,23,Female,-,1,HighLowRatio,1,1,1,-,-,Pending,-,-,-,-,-,445.570,445.669,0.099,True,1,-4.51,-3.50,-3.50,-3.50,-,-,0.099,True,-,-,-,-,-,-,-,-,-,-,-,-,-,-,-,-,-,-,-,-,-,-,-,-,-,-,-,-,-,-,-,-
2025-05-15 11:07:34.017,MovementStart,233,23,Female,-,1,-,1,-,-,-,-,-,-,-,-,-,-,-,-,-,-,-,-3.50,-3.50,-,-,-,-,-,-,-,-,-,-,-,-,-,-,-,-,-,-,-,-,-,-,-,-,-,-,-,-,-,-,-,-,-,-,-,-,-,-
2025-05-15 11:07:34.117,MovementStep,233,23,Female,-,1,HighLowRatio,1,1,1,-,-,Pending,-,-,-,-,-,445.721,445.820,0.100,True,1,-3.50,-3.50,-2.50,-3.50,-,-,0.100,True,-,-,-,-,-,-,-,-,-,-,-,-,-,-,-,-,-,-,-,-,-,-,-,-,-,-,-,-,-,-,-,-
2025-05-15 11:07:34.168,MovementStart,233,23,Female,-,1,-,1,-,-,-,-,-,-,-,-,-,-,-,-,-,-,-,-2.50,-3.50,-,-,-,-,-,-,-,-,-,-,-,-,-,-,-,-,-,-,-,-,-,-,-,-,-,-,-,-,-,-,-,-,-,-,-,-,-,-
2025-05-15 11:07:34.268,MovementStep,233,23,Female,-,1,HighLowRatio,1,1,1,-,-,Pending,-,-,-,-,-,445.871,445.971,0.100,True,1,-2.50,-3.50,-1.50,-3.50,-,-,0.100,False,-,-,-,-,-,-,-,-,-,-,-,-,-,-,-,-,-,-,-,-,-,-,-,-,-,-,-,-,-,-,-,-
2025-05-15 11:07:34.316,MovementStart,233,23,Female,-,1,-,1,-,-,-,-,-,-,-,-,-,-,-,-,-,-,-,-1.50,-3.50,-,-,-,-,-,-,-,-,-,-,-,-,-,-,-,-,-,-,-,-,-,-,-,-,-,-,-,-,-,-,-,-,-,-,-,-,-,-
2025-05-15 11:07:34.342,ScoreUpdate,233,23,Female,False,1,-,1,-,-,-,-,-,-,10,10,0,-,-,-,-,-,-,-,-,-,-,-,-,-,-,-,-,-,-,-,-,-,-,-,-,-,-,-,-,-,-,-,-,-,-,-,-,-,-,-,-,-,-,-,-,-,-
2025-05-15 11:07:34.359,CollisionTime,233,23,Female,False,-,-,1,-,-,-,-,-,-,-,-,-,0.660,-,-,-,-,-,-,-,-,-,-,-,-,-,-,-,-,-,-,-,-,-,-,-,-,-,-,-,-,-,-,-,-,-,-,-,-,-,-,-,-,-,-,-,-,-
2025-05-15 11:07:34.360,MovementDuration,233,23,Female,-,-,-,1,-,-,-,-,Success,-,-,-,-,0.660,-,-,-,-,-,-,-,-,-,-,-,-,-,-,-,-,-,-,-,-,-,-,-,-,-,-,-,-,-,-,-,-,-,-,-,-,-,-,-,-,-,-,-,-,-
2025-05-15 11:07:34.362,DecisionOutcome,233,23,Female,False,1,HighLowRatio,1,1,1,Work,1.291,Success,True,10,10,0,0.660,-,-,-,-,-,-,-,-,-,5,0.508:right|0.698:right|0.849:right|0.999:right|1.148:right,0.132,False,0.1,-,-,284.49,15.51,0,0.00,-,-,-,-,-,-,-,-,-,-,-,-,-,-,-,-,-,-,-,-,-,-,-,-,-
2025-05-15 11:07:34.362,MovementComplete,233,23,Female,-,-,-,1,-,-,-,-,-,True,-,-,-,-,-,-,-,-,-,-,-,-,-,-,-,-,-,-,-,-,-,-,-,-,-,-,-,-,-,-,-,-,-,-,-,-,-,-,-,-,-,-,-,-,-,-,-,-,-
2025-05-15 11:07:34.363,RewardCollected,233,23,Female,-,-,-,1,-,-,-,-,-,-,-,-,-,-,-,-,-,-,-,-,-,-,-,-,-,-,-,-,-,-,-,-,-,-,-,-,-,-,-,-,-,-,-,-,-,-,-,-,-,-,-,-,-,-,-,-,-,-,-
2025-05-15 11:07:34.363,OutcomeType,233,23,Female,-,-,-,1,-,-,-,-,Success,-,-,-,-,-,-,-,-,-,-,-,-,-,-,-,-,-,-,-,-,-,-,-,-,-,-,-,-,-,-,-,-,-,-,-,-,-,-,-,-,-,-,-,-,-,-,-,-,-,-
2025-05-15 11:07:34.363,RewardCollected,233,23,Female,-,-,-,1,-,-,-,-,-,-,-,-,-,-,-,-,-,-,-,-,-,-,-,-,-,-,-,-,-,-,-,-,-,-,-,-,-,-,-,-,-,-,-,-,-,-,-,-,-,-,-,-,-,-,-,-,-,-,-
2025-05-15 11:07:34.364,ButtonPresses,233,23,Female,-,-,-,1,-,-,-,-,-,-,-,-,-,-,-,-,-,-,-,-,-,-,-,5,0.508:right|0.698:right|0.849:right|0.999:right|1.148:right,-,-,-,-,-,-,-,-,-,-,-,-,-,-,-,-,-,-,-,-,-,-,-,-,-,-,-,-,-,-,-,-,-,-
2025-05-15 11:07:34.412,MovementStep,233,23,Female,-,1,HighLowRatio,1,1,1,-,-,Success,-,-,-,-,-,446.019,446.115,0.096,True,1,-1.50,-3.50,-0.50,-3.50,-,-,0.096,True,-,-,-,-,-,-,-,-,-,-,-,-,-,-,-,-,-,-,-,-,-,-,-,-,-,-,-,-,-,-,-,-
2025-05-15 11:07:35.550,BlockTimeStatus,233,23,Female,-,1,-,-,-,-,-,-,-,-,-,-,-,-,-,-,-,-,-,-,-,-,-,-,-,-,-,-,-,-,283.28,16.72,0,0.00,-,-,-,-,-,-,-,-,-,-,-,-,-,-,-,-,-,-,-,-,-,-,-,-,-
2025-05-15 11:07:38.271,BlockTimeStatus,233,23,Female,-,1,-,-,-,-,-,-,-,-,-,-,-,-,-,-,-,-,-,-,-,-,-,-,-,-,-,-,-,-,280.56,19.44,1,3.09,-,-,-,-,-,-,-,-,-,-,-,-,-,-,-,-,-,-,-,-,-,-,-,-,-
2025-05-15 11:07:38.288,TrialStart,233,23,Female,-,1,-,2,-,-,-,-,-,-,-,-,-,-,-,-,-,-,-,-,-,-,-,-,-,-,-,-,-,-,-,-,-,-,-,-,-,-,-,-,-,-,-,-,-,-,-,-,-,-,-,-,-,-,-,-,-,-,-
2025-05-15 11:07:38.473,InfoMessage,233,23,Female,-,-,-,-,-,-,-,-,-,-,-,-,-,-,-,-,-,-,-,-,-,-,-,-,-,-,-,-,-,-,-,-,-,-,-,-,-,-,-,-,-,-,-,-,-,-,-,-,-,-,-,-,-,-,-,-,-,-,-
2025-05-15 11:07:38.475,TrialStart,233,23,Female,-,1,-,2,-,-,-,-,-,-,-,-,-,-,-,-,-,-,-,-,-,-,-,-,-,-,-,-,-,-,-,-,-,-,-,-,-,-,-,-,-,-,-,-,-,-,-,-,-,-,-,-,-,-,-,-,-,-,-
2025-05-15 11:07:38.654,InfoMessage,233,23,Female,-,-,-,-,-,-,-,-,-,-,-,-,-,-,-,-,-,-,-,-,-,-,-,-,-,-,-,-,-,-,-,-,-,-,-,-,-,-,-,-,-,-,-,-,-,-,-,-,-,-,-,-,-,-,-,-,-,-,-
2025-05-15 11:07:39.497,InfoMessage,233,23,Female,-,-,-,-,-,-,-,-,-,-,-,-,-,-,-,-,-,-,-,-,-,-,-,-,-,-,-,-,-,-,-,-,-,-,-,-,-,-,-,-,-,-,-,-,-,-,-,-,-,-,-,-,-,-,-,-,-,-,-
2025-05-15 11:07:40.261,MovementStart,233,23,Female,-,1,-,2,-,-,-,-,-,-,-,-,-,-,-,-,-,-,-,-6.50,-1.50,-,-,-,-,-,-,-,-,-,-,-,-,-,-,-,-,-,-,-,-,-,-,-,-,-,-,-,-,-,-,-,-,-,-,-,-,-,-
2025-05-15 11:07:40.361,MovementStep,233,23,Female,-,1,HighLowRatio,2,2,2,-,-,Pending,-,-,-,-,-,451.226,451.526,0.300,True,2,-6.50,-1.50,-5.50,-1.50,-,-,0.150,False,-,-,-,-,-,-,-,-,-,-,-,-,-,-,-,-,-,-,-,-,-,-,-,-,-,-,-,-,-,-,-,-
2025-05-15 11:07:40.562,MovementStart,233,23,Female,-,1,-,2,-,-,-,-,-,-,-,-,-,-,-,-,-,-,-,-5.50,-1.50,-,-,-,-,-,-,-,-,-,-,-,-,-,-,-,-,-,-,-,-,-,-,-,-,-,-,-,-,-,-,-,-,-,-,-,-,-,-
2025-05-15 11:07:40.663,MovementStep,233,23,Female,-,1,HighLowRatio,2,2,2,-,-,Pending,-,-,-,-,-,451.599,451.827,0.227,True,2,-5.50,-1.50,-4.50,-1.50,-,-,0.114,False,-,-,-,-,-,-,-,-,-,-,-,-,-,-,-,-,-,-,-,-,-,-,-,-,-,-,-,-,-,-,-,-
2025-05-15 11:07:40.861,MovementStart,233,23,Female,-,1,-,2,-,-,-,-,-,-,-,-,-,-,-,-,-,-,-,-4.50,-1.50,-,-,-,-,-,-,-,-,-,-,-,-,-,-,-,-,-,-,-,-,-,-,-,-,-,-,-,-,-,-,-,-,-,-,-,-,-,-
2025-05-15 11:07:40.962,MovementStep,233,23,Female,-,1,HighLowRatio,2,2,2,-,-,Pending,-,-,-,-,-,451.876,452.127,0.251,True,2,-4.50,-1.50,-3.50,-1.50,-,-,0.125,False,-,-,-,-,-,-,-,-,-,-,-,-,-,-,-,-,-,-,-,-,-,-,-,-,-,-,-,-,-,-,-,-
2025-05-15 11:07:41.171,MovementStart,233,23,Female,-,1,-,2,-,-,-,-,-,-,-,-,-,-,-,-,-,-,-,-3.50,-1.50,-,-,-,-,-,-,-,-,-,-,-,-,-,-,-,-,-,-,-,-,-,-,-,-,-,-,-,-,-,-,-,-,-,-,-,-,-,-
2025-05-15 11:07:41.271,MovementStep,233,23,Female,-,1,HighLowRatio,2,2,2,-,-,Pending,-,-,-,-,-,452.182,452.436,0.254,True,2,-3.50,-1.50,-2.50,-1.50,-,-,0.127,False,-,-,-,-,-,-,-,-,-,-,-,-,-,-,-,-,-,-,-,-,-,-,-,-,-,-,-,-,-,-,-,-
2025-05-15 11:07:41.492,MovementStart,233,23,Female,-,1,-,2,-,-,-,-,-,-,-,-,-,-,-,-,-,-,-,-2.50,-1.50,-,-,-,-,-,-,-,-,-,-,-,-,-,-,-,-,-,-,-,-,-,-,-,-,-,-,-,-,-,-,-,-,-,-,-,-,-,-
2025-05-15 11:07:41.517,ScoreUpdate,233,23,Female,False,1,-,2,-,-,-,-,-,-,10,20,0,-,-,-,-,-,-,-,-,-,-,-,-,-,-,-,-,-,-,-,-,-,-,-,-,-,-,-,-,-,-,-,-,-,-,-,-,-,-,-,-,-,-,-,-,-,-
2025-05-15 11:07:41.518,CollisionTime,233,23,Female,False,-,-,2,-,-,-,-,-,-,-,-,-,1.454,-,-,-,-,-,-,-,-,-,-,-,-,-,-,-,-,-,-,-,-,-,-,-,-,-,-,-,-,-,-,-,-,-,-,-,-,-,-,-,-,-,-,-,-,-
2025-05-15 11:07:41.519,MovementDuration,233,23,Female,-,-,-,2,-,-,-,-,Success,-,-,-,-,1.454,-,-,-,-,-,-,-,-,-,-,-,-,-,-,-,-,-,-,-,-,-,-,-,-,-,-,-,-,-,-,-,-,-,-,-,-,-,-,-,-,-,-,-,-,-
2025-05-15 11:07:41.521,DecisionOutcome,233,23,Female,False,1,HighLowRatio,2,2,2,Work,0.553,Success,True,10,20,0,1.454,-,-,-,-,-,-,-,-,-,10,0.377:right|0.577:right|0.751:right|0.878:right|1.027:right|1.178:right|1.334:right|1.487:right|1.643:right|1.808:right,0.145,False,0.1,-,-,277.35,22.65,1,2.65,-,-,-,-,-,-,-,-,-,-,-,-,-,-,-,-,-,-,-,-,-,-,-,-,-
2025-05-15 11:07:41.521,MovementComplete,233,23,Female,-,-,-,2,-,-,-,-,-,True,-,-,-,-,-,-,-,-,-,-,-,-,-,-,-,-,-,-,-,-,-,-,-,-,-,-,-,-,-,-,-,-,-,-,-,-,-,-,-,-,-,-,-,-,-,-,-,-,-
2025-05-15 11:07:41.522,RewardCollected,233,23,Female,-,-,-,2,-,-,-,-,-,-,-,-,-,-,-,-,-,-,-,-,-,-,-,-,-,-,-,-,-,-,-,-,-,-,-,-,-,-,-,-,-,-,-,-,-,-,-,-,-,-,-,-,-,-,-,-,-,-,-
2025-05-15 11:07:41.522,OutcomeType,233,23,Female,-,-,-,2,-,-,-,-,Success,-,-,-,-,-,-,-,-,-,-,-,-,-,-,-,-,-,-,-,-,-,-,-,-,-,-,-,-,-,-,-,-,-,-,-,-,-,-,-,-,-,-,-,-,-,-,-,-,-,-
2025-05-15 11:07:41.523,RewardCollected,233,23,Female,-,-,-,2,-,-,-,-,-,-,-,-,-,-,-,-,-,-,-,-,-,-,-,-,-,-,-,-,-,-,-,-,-,-,-,-,-,-,-,-,-,-,-,-,-,-,-,-,-,-,-,-,-,-,-,-,-,-,-
2025-05-15 11:07:41.523,ButtonPresses,233,23,Female,-,-,-,2,-,-,-,-,-,-,-,-,-,-,-,-,-,-,-,-,-,-,-,10,0.377:right|0.577:right|0.751:right|0.878:right|1.027:right|1.178:right|1.334:right|1.487:right|1.643:right|1.808:right,-,-,-,-,-,-,-,-,-,-,-,-,-,-,-,-,-,-,-,-,-,-,-,-,-,-,-,-,-,-,-,-,-,-
2025-05-15 11:07:41.593,MovementStep,233,23,Female,-,1,HighLowRatio,2,2,2,-,-,Success,-,-,-,-,-,452.491,452.757,0.266,True,2,-2.50,-1.50,-1.50,-1.50,-,-,0.133,False,-,-,-,-,-,-,-,-,-,-,-,-,-,-,-,-,-,-,-,-,-,-,-,-,-,-,-,-,-,-,-,-
2025-05-15 11:07:44.785,BlockTimeStatus,233,23,Female,-,1,-,-,-,-,-,-,-,-,-,-,-,-,-,-,-,-,-,-,-,-,-,-,-,-,-,-,-,-,274.08,25.92,2,4.63,-,-,-,-,-,-,-,-,-,-,-,-,-,-,-,-,-,-,-,-,-,-,-,-,-
2025-05-15 11:07:44.797,TrialStart,233,23,Female,-,1,-,3,-,-,-,-,-,-,-,-,-,-,-,-,-,-,-,-,-,-,-,-,-,-,-,-,-,-,-,-,-,-,-,-,-,-,-,-,-,-,-,-,-,-,-,-,-,-,-,-,-,-,-,-,-,-,-
2025-05-15 11:07:44.981,InfoMessage,233,23,Female,-,-,-,-,-,-,-,-,-,-,-,-,-,-,-,-,-,-,-,-,-,-,-,-,-,-,-,-,-,-,-,-,-,-,-,-,-,-,-,-,-,-,-,-,-,-,-,-,-,-,-,-,-,-,-,-,-,-,-
2025-05-15 11:07:44.983,TrialStart,233,23,Female,-,1,-,3,-,-,-,-,-,-,-,-,-,-,-,-,-,-,-,-,-,-,-,-,-,-,-,-,-,-,-,-,-,-,-,-,-,-,-,-,-,-,-,-,-,-,-,-,-,-,-,-,-,-,-,-,-,-,-
2025-05-15 11:07:45.165,InfoMessage,233,23,Female,-,-,-,-,-,-,-,-,-,-,-,-,-,-,-,-,-,-,-,-,-,-,-,-,-,-,-,-,-,-,-,-,-,-,-,-,-,-,-,-,-,-,-,-,-,-,-,-,-,-,-,-,-,-,-,-,-,-,-
2025-05-15 11:07:45.551,BlockTimeStatus,233,23,Female,-,1,-,-,-,-,-,-,-,-,-,-,-,-,-,-,-,-,-,-,-,-,-,-,-,-,-,-,-,-,273.33,26.67,2,4.50,-,-,-,-,-,-,-,-,-,-,-,-,-,-,-,-,-,-,-,-,-,-,-,-,-
2025-05-15 11:07:46.788,DecisionOutcome,233,23,Female,False,1,HighLowRatio,3,3,3,Skip,1.630,Skip,False,0,20,0,0.000,-,-,-,-,-,-,-,-,-,0,-,-1.000,False,0.1,Skip,3,272.10,27.90,2,4.30,-,-,-,-,-,-,-,-,-,-,-,-,-,-,-,-,-,-,-,-,-,-,-,-,-
2025-05-15 11:07:46.789,ScoreUpdate,233,23,Female,False,1,-,3,-,-,-,-,-,-,0,20,0,-,-,-,-,-,-,-,-,-,-,-,-,-,-,-,-,-,-,-,-,-,-,-,-,-,-,-,-,-,-,-,-,-,-,-,-,-,-,-,-,-,-,-,-,-,-
2025-05-15 11:07:49.785,TrialStart,233,23,Female,-,1,-,4,-,-,-,-,-,-,-,-,-,-,-,-,-,-,-,-,-,-,-,-,-,-,-,-,-,-,-,-,-,-,-,-,-,-,-,-,-,-,-,-,-,-,-,-,-,-,-,-,-,-,-,-,-,-,-
2025-05-15 11:07:49.792,TrialStart,233,23,Female,-,1,-,4,-,-,-,-,-,-,-,-,-,-,-,-,-,-,-,-,-,-,-,-,-,-,-,-,-,-,-,-,-,-,-,-,-,-,-,-,-,-,-,-,-,-,-,-,-,-,-,-,-,-,-,-,-,-,-
2025-05-15 11:07:50.026,InfoMessage,233,23,Female,-,-,-,-,-,-,-,-,-,-,-,-,-,-,-,-,-,-,-,-,-,-,-,-,-,-,-,-,-,-,-,-,-,-,-,-,-,-,-,-,-,-,-,-,-,-,-,-,-,-,-,-,-,-,-,-,-,-,-
2025-05-15 11:07:50.731,InfoMessage,233,23,Female,-,-,-,-,-,-,-,-,-,-,-,-,-,-,-,-,-,-,-,-,-,-,-,-,-,-,-,-,-,-,-,-,-,-,-,-,-,-,-,-,-,-,-,-,-,-,-,-,-,-,-,-,-,-,-,-,-,-,-
2025-05-15 11:07:55.554,BlockTimeStatus,233,23,Female,-,1,-,-,-,-,-,-,-,-,-,-,-,-,-,-,-,-,-,-,-,-,-,-,-,-,-,-,-,-,263.34,36.66,2,3.27,-,-,-,-,-,-,-,-,-,-,-,-,-,-,-,-,-,-,-,-,-,-,-,-,-
2025-05-15 11:07:55.919,MovementDuration,233,23,Female,-,-,-,4,-,-,-,-,Failure,-,-,-,-,0.000,-,-,-,-,-,-,-,-,-,-,-,-,-,-,-,-,-,-,-,-,-,-,-,-,-,-,-,-,-,-,-,-,-,-,-,-,-,-,-,-,-,-,-,-,-
2025-05-15 11:07:55.920,OutcomeType,233,23,Female,-,-,-,4,-,-,-,-,Failure,-,-,-,-,-,-,-,-,-,-,-,-,-,-,-,-,-,-,-,-,-,-,-,-,-,-,-,-,-,-,-,-,-,-,-,-,-,-,-,-,-,-,-,-,-,-,-,-,-,-
2025-05-15 11:07:55.920,RewardCollected,233,23,Female,-,-,-,4,-,-,-,-,-,-,-,-,-,-,-,-,-,-,-,-,-,-,-,-,-,-,-,-,-,-,-,-,-,-,-,-,-,-,-,-,-,-,-,-,-,-,-,-,-,-,-,-,-,-,-,-,-,-,-
2025-05-15 11:07:55.920,ButtonPresses,233,23,Female,-,-,-,4,-,-,-,-,-,-,-,-,-,-,-,-,-,-,-,-,-,-,-,0,-,-,-,-,-,-,-,-,-,-,-,-,-,-,-,-,-,-,-,-,-,-,-,-,-,-,-,-,-,-,-,-,-,-,-
2025-05-15 11:07:55.923,DecisionOutcome,233,23,Female,False,1,HighLowRatio,4,1,1,Work,0.407,Failure,False,0,20,0,0.000,-,-,-,-,-,-,-,-,-,0,-,-1.000,False,0.1,-,-,262.98,37.02,2,3.24,-,-,-,-,-,-,-,-,-,-,-,-,-,-,-,-,-,-,-,-,-,-,-,-,-
2025-05-15 11:07:55.923,ButtonPresses,233,23,Female,-,-,-,4,-,-,-,-,-,-,-,-,-,-,-,-,-,-,-,-,-,-,-,0,-,-,-,-,-,-,-,-,-,-,-,-,-,-,-,-,-,-,-,-,-,-,-,-,-,-,-,-,-,-,-,-,-,-,-
2025-05-15 11:07:55.924,MovementComplete,233,23,Female,-,-,-,4,-,-,-,-,-,False,-,-,-,-,-,-,-,-,-,-,-,-,-,-,-,-,-,-,-,-,-,-,-,-,-,-,-,-,-,-,-,-,-,-,-,-,-,-,-,-,-,-,-,-,-,-,-,-,-
2025-05-15 11:07:55.924,RewardCollected,233,23,Female,-,-,-,4,-,-,-,-,-,-,-,-,-,-,-,-,-,-,-,-,-,-,-,-,-,-,-,-,-,-,-,-,-,-,-,-,-,-,-,-,-,-,-,-,-,-,-,-,-,-,-,-,-,-,-,-,-,-,-
2025-05-15 11:07:56.020,BlockTimeStatus,233,23,Female,-,1,-,-,-,-,-,-,-,-,-,-,-,-,-,-,-,-,-,-,-,-,-,-,-,-,-,-,-,-,262.88,37.12,3,4.85,-,-,-,-,-,-,-,-,-,-,-,-,-,-,-,-,-,-,-,-,-,-,-,-,-
2025-05-15 11:07:56.041,TrialStart,233,23,Female,-,1,-,5,-,-,-,-,-,-,-,-,-,-,-,-,-,-,-,-,-,-,-,-,-,-,-,-,-,-,-,-,-,-,-,-,-,-,-,-,-,-,-,-,-,-,-,-,-,-,-,-,-,-,-,-,-,-,-
2025-05-15 11:07:56.231,InfoMessage,233,23,Female,-,-,-,-,-,-,-,-,-,-,-,-,-,-,-,-,-,-,-,-,-,-,-,-,-,-,-,-,-,-,-,-,-,-,-,-,-,-,-,-,-,-,-,-,-,-,-,-,-,-,-,-,-,-,-,-,-,-,-
2025-05-15 11:07:56.233,TrialStart,233,23,Female,-,1,-,5,-,-,-,-,-,-,-,-,-,-,-,-,-,-,-,-,-,-,-,-,-,-,-,-,-,-,-,-,-,-,-,-,-,-,-,-,-,-,-,-,-,-,-,-,-,-,-,-,-,-,-,-,-,-,-
2025-05-15 11:07:56.413,InfoMessage,233,23,Female,-,-,-,-,-,-,-,-,-,-,-,-,-,-,-,-,-,-,-,-,-,-,-,-,-,-,-,-,-,-,-,-,-,-,-,-,-,-,-,-,-,-,-,-,-,-,-,-,-,-,-,-,-,-,-,-,-,-,-
2025-05-15 11:07:58.512,InfoMessage,233,23,Female,-,-,-,-,-,-,-,-,-,-,-,-,-,-,-,-,-,-,-,-,-,-,-,-,-,-,-,-,-,-,-,-,-,-,-,-,-,-,-,-,-,-,-,-,-,-,-,-,-,-,-,-,-,-,-,-,-,-,-
2025-05-15 11:08:03.701,MovementDuration,233,23,Female,-,-,-,5,-,-,-,-,Failure,-,-,-,-,0.000,-,-,-,-,-,-,-,-,-,-,-,-,-,-,-,-,-,-,-,-,-,-,-,-,-,-,-,-,-,-,-,-,-,-,-,-,-,-,-,-,-,-,-,-,-
2025-05-15 11:08:03.702,OutcomeType,233,23,Female,-,-,-,5,-,-,-,-,Failure,-,-,-,-,-,-,-,-,-,-,-,-,-,-,-,-,-,-,-,-,-,-,-,-,-,-,-,-,-,-,-,-,-,-,-,-,-,-,-,-,-,-,-,-,-,-,-,-,-,-
2025-05-15 11:08:03.702,RewardCollected,233,23,Female,-,-,-,5,-,-,-,-,-,-,-,-,-,-,-,-,-,-,-,-,-,-,-,-,-,-,-,-,-,-,-,-,-,-,-,-,-,-,-,-,-,-,-,-,-,-,-,-,-,-,-,-,-,-,-,-,-,-,-
2025-05-15 11:08:03.702,ButtonPresses,233,23,Female,-,-,-,5,-,-,-,-,-,-,-,-,-,-,-,-,-,-,-,-,-,-,-,0,-,-,-,-,-,-,-,-,-,-,-,-,-,-,-,-,-,-,-,-,-,-,-,-,-,-,-,-,-,-,-,-,-,-,-
2025-05-15 11:08:03.705,DecisionOutcome,233,23,Female,False,1,HighLowRatio,5,2,2,Work,1.809,Failure,False,0,20,0,0.000,-,-,-,-,-,-,-,-,-,0,-,-1.000,False,0.1,-,-,255.24,44.76,3,4.02,-,-,-,-,-,-,-,-,-,-,-,-,-,-,-,-,-,-,-,-,-,-,-,-,-
2025-05-15 11:08:03.705,ButtonPresses,233,23,Female,-,-,-,5,-,-,-,-,-,-,-,-,-,-,-,-,-,-,-,-,-,-,-,0,-,-,-,-,-,-,-,-,-,-,-,-,-,-,-,-,-,-,-,-,-,-,-,-,-,-,-,-,-,-,-,-,-,-,-
2025-05-15 11:08:03.705,MovementComplete,233,23,Female,-,-,-,5,-,-,-,-,-,False,-,-,-,-,-,-,-,-,-,-,-,-,-,-,-,-,-,-,-,-,-,-,-,-,-,-,-,-,-,-,-,-,-,-,-,-,-,-,-,-,-,-,-,-,-,-,-,-,-
2025-05-15 11:08:03.706,RewardCollected,233,23,Female,-,-,-,5,-,-,-,-,-,-,-,-,-,-,-,-,-,-,-,-,-,-,-,-,-,-,-,-,-,-,-,-,-,-,-,-,-,-,-,-,-,-,-,-,-,-,-,-,-,-,-,-,-,-,-,-,-,-,-
2025-05-15 11:08:03.804,BlockTimeStatus,233,23,Female,-,1,-,-,-,-,-,-,-,-,-,-,-,-,-,-,-,-,-,-,-,-,-,-,-,-,-,-,-,-,255.14,44.86,4,5.35,-,-,-,-,-,-,-,-,-,-,-,-,-,-,-,-,-,-,-,-,-,-,-,-,-
2025-05-15 11:08:03.819,TrialStart,233,23,Female,-,1,-,6,-,-,-,-,-,-,-,-,-,-,-,-,-,-,-,-,-,-,-,-,-,-,-,-,-,-,-,-,-,-,-,-,-,-,-,-,-,-,-,-,-,-,-,-,-,-,-,-,-,-,-,-,-,-,-
2025-05-15 11:08:04.026,InfoMessage,233,23,Female,-,-,-,-,-,-,-,-,-,-,-,-,-,-,-,-,-,-,-,-,-,-,-,-,-,-,-,-,-,-,-,-,-,-,-,-,-,-,-,-,-,-,-,-,-,-,-,-,-,-,-,-,-,-,-,-,-,-,-
2025-05-15 11:08:04.027,TrialStart,233,23,Female,-,1,-,6,-,-,-,-,-,-,-,-,-,-,-,-,-,-,-,-,-,-,-,-,-,-,-,-,-,-,-,-,-,-,-,-,-,-,-,-,-,-,-,-,-,-,-,-,-,-,-,-,-,-,-,-,-,-,-
2025-05-15 11:08:04.207,InfoMessage,233,23,Female,-,-,-,-,-,-,-,-,-,-,-,-,-,-,-,-,-,-,-,-,-,-,-,-,-,-,-,-,-,-,-,-,-,-,-,-,-,-,-,-,-,-,-,-,-,-,-,-,-,-,-,-,-,-,-,-,-,-,-
2025-05-15 11:08:04.501,InfoMessage,233,23,Female,-,-,-,-,-,-,-,-,-,-,-,-,-,-,-,-,-,-,-,-,-,-,-,-,-,-,-,-,-,-,-,-,-,-,-,-,-,-,-,-,-,-,-,-,-,-,-,-,-,-,-,-,-,-,-,-,-,-,-
2025-05-15 11:08:05.550,BlockTimeStatus,233,23,Female,-,1,-,-,-,-,-,-,-,-,-,-,-,-,-,-,-,-,-,-,-,-,-,-,-,-,-,-,-,-,253.42,46.58,4,5.15,-,-,-,-,-,-,-,-,-,-,-,-,-,-,-,-,-,-,-,-,-,-,-,-,-
2025-05-15 11:08:09.688,MovementDuration,233,23,Female,-,-,-,6,-,-,-,-,Failure,-,-,-,-,0.000,-,-,-,-,-,-,-,-,-,-,-,-,-,-,-,-,-,-,-,-,-,-,-,-,-,-,-,-,-,-,-,-,-,-,-,-,-,-,-,-,-,-,-,-,-
2025-05-15 11:08:09.689,OutcomeType,233,23,Female,-,-,-,6,-,-,-,-,Failure,-,-,-,-,-,-,-,-,-,-,-,-,-,-,-,-,-,-,-,-,-,-,-,-,-,-,-,-,-,-,-,-,-,-,-,-,-,-,-,-,-,-,-,-,-,-,-,-,-,-
2025-05-15 11:08:09.689,RewardCollected,233,23,Female,-,-,-,6,-,-,-,-,-,-,-,-,-,-,-,-,-,-,-,-,-,-,-,-,-,-,-,-,-,-,-,-,-,-,-,-,-,-,-,-,-,-,-,-,-,-,-,-,-,-,-,-,-,-,-,-,-,-,-
2025-05-15 11:08:09.690,ButtonPresses,233,23,Female,-,-,-,6,-,-,-,-,-,-,-,-,-,-,-,-,-,-,-,-,-,-,-,0,-,-,-,-,-,-,-,-,-,-,-,-,-,-,-,-,-,-,-,-,-,-,-,-,-,-,-,-,-,-,-,-,-,-,-
2025-05-15 11:08:09.692,DecisionOutcome,233,23,Female,False,1,HighLowRatio,6,1,1,Work,0.000,Failure,False,0,20,0,0.000,-,-,-,-,-,-,-,-,-,0,-,-1.000,False,0.1,-,-,249.28,50.72,4,4.73,-,-,-,-,-,-,-,-,-,-,-,-,-,-,-,-,-,-,-,-,-,-,-,-,-
2025-05-15 11:08:09.693,ButtonPresses,233,23,Female,-,-,-,6,-,-,-,-,-,-,-,-,-,-,-,-,-,-,-,-,-,-,-,0,-,-,-,-,-,-,-,-,-,-,-,-,-,-,-,-,-,-,-,-,-,-,-,-,-,-,-,-,-,-,-,-,-,-,-
2025-05-15 11:08:09.693,MovementComplete,233,23,Female,-,-,-,6,-,-,-,-,-,False,-,-,-,-,-,-,-,-,-,-,-,-,-,-,-,-,-,-,-,-,-,-,-,-,-,-,-,-,-,-,-,-,-,-,-,-,-,-,-,-,-,-,-,-,-,-,-,-,-
2025-05-15 11:08:09.693,RewardCollected,233,23,Female,-,-,-,6,-,-,-,-,-,-,-,-,-,-,-,-,-,-,-,-,-,-,-,-,-,-,-,-,-,-,-,-,-,-,-,-,-,-,-,-,-,-,-,-,-,-,-,-,-,-,-,-,-,-,-,-,-,-,-
2025-05-15 11:08:09.789,BlockTimeStatus,233,23,Female,-,1,-,-,-,-,-,-,-,-,-,-,-,-,-,-,-,-,-,-,-,-,-,-,-,-,-,-,-,-,249.18,50.82,5,5.90,-,-,-,-,-,-,-,-,-,-,-,-,-,-,-,-,-,-,-,-,-,-,-,-,-
2025-05-15 11:08:09.801,TrialStart,233,23,Female,-,1,-,7,-,-,-,-,-,-,-,-,-,-,-,-,-,-,-,-,-,-,-,-,-,-,-,-,-,-,-,-,-,-,-,-,-,-,-,-,-,-,-,-,-,-,-,-,-,-,-,-,-,-,-,-,-,-,-
2025-05-15 11:08:09.983,InfoMessage,233,23,Female,-,-,-,-,-,-,-,-,-,-,-,-,-,-,-,-,-,-,-,-,-,-,-,-,-,-,-,-,-,-,-,-,-,-,-,-,-,-,-,-,-,-,-,-,-,-,-,-,-,-,-,-,-,-,-,-,-,-,-
2025-05-15 11:08:09.985,TrialStart,233,23,Female,-,1,-,7,-,-,-,-,-,-,-,-,-,-,-,-,-,-,-,-,-,-,-,-,-,-,-,-,-,-,-,-,-,-,-,-,-,-,-,-,-,-,-,-,-,-,-,-,-,-,-,-,-,-,-,-,-,-,-
2025-05-15 11:08:10.166,InfoMessage,233,23,Female,-,-,-,-,-,-,-,-,-,-,-,-,-,-,-,-,-,-,-,-,-,-,-,-,-,-,-,-,-,-,-,-,-,-,-,-,-,-,-,-,-,-,-,-,-,-,-,-,-,-,-,-,-,-,-,-,-,-,-
2025-05-15 11:08:10.558,InfoMessage,233,23,Female,-,-,-,-,-,-,-,-,-,-,-,-,-,-,-,-,-,-,-,-,-,-,-,-,-,-,-,-,-,-,-,-,-,-,-,-,-,-,-,-,-,-,-,-,-,-,-,-,-,-,-,-,-,-,-,-,-,-,-
2025-05-15 11:08:15.550,BlockTimeStatus,233,23,Female,-,1,-,-,-,-,-,-,-,-,-,-,-,-,-,-,-,-,-,-,-,-,-,-,-,-,-,-,-,-,243.44,56.56,5,5.30,-,-,-,-,-,-,-,-,-,-,-,-,-,-,-,-,-,-,-,-,-,-,-,-,-
2025-05-15 11:08:15.751,MovementDuration,233,23,Female,-,-,-,7,-,-,-,-,Failure,-,-,-,-,0.000,-,-,-,-,-,-,-,-,-,-,-,-,-,-,-,-,-,-,-,-,-,-,-,-,-,-,-,-,-,-,-,-,-,-,-,-,-,-,-,-,-,-,-,-,-
2025-05-15 11:08:15.751,OutcomeType,233,23,Female,-,-,-,7,-,-,-,-,Failure,-,-,-,-,-,-,-,-,-,-,-,-,-,-,-,-,-,-,-,-,-,-,-,-,-,-,-,-,-,-,-,-,-,-,-,-,-,-,-,-,-,-,-,-,-,-,-,-,-,-
2025-05-15 11:08:15.752,RewardCollected,233,23,Female,-,-,-,7,-,-,-,-,-,-,-,-,-,-,-,-,-,-,-,-,-,-,-,-,-,-,-,-,-,-,-,-,-,-,-,-,-,-,-,-,-,-,-,-,-,-,-,-,-,-,-,-,-,-,-,-,-,-,-
2025-05-15 11:08:15.752,ButtonPresses,233,23,Female,-,-,-,7,-,-,-,-,-,-,-,-,-,-,-,-,-,-,-,-,-,-,-,0,-,-,-,-,-,-,-,-,-,-,-,-,-,-,-,-,-,-,-,-,-,-,-,-,-,-,-,-,-,-,-,-,-,-,-
2025-05-15 11:08:15.754,DecisionOutcome,233,23,Female,False,1,HighLowRatio,7,1,1,Work,0.103,Failure,False,0,20,0,0.000,-,-,-,-,-,-,-,-,-,0,-,-1.000,False,0.1,-,-,243.24,56.76,5,5.29,-,-,-,-,-,-,-,-,-,-,-,-,-,-,-,-,-,-,-,-,-,-,-,-,-
2025-05-15 11:08:15.755,ButtonPresses,233,23,Female,-,-,-,7,-,-,-,-,-,-,-,-,-,-,-,-,-,-,-,-,-,-,-,0,-,-,-,-,-,-,-,-,-,-,-,-,-,-,-,-,-,-,-,-,-,-,-,-,-,-,-,-,-,-,-,-,-,-,-
2025-05-15 11:08:15.755,MovementComplete,233,23,Female,-,-,-,7,-,-,-,-,-,False,-,-,-,-,-,-,-,-,-,-,-,-,-,-,-,-,-,-,-,-,-,-,-,-,-,-,-,-,-,-,-,-,-,-,-,-,-,-,-,-,-,-,-,-,-,-,-,-,-
2025-05-15 11:08:15.756,RewardCollected,233,23,Female,-,-,-,7,-,-,-,-,-,-,-,-,-,-,-,-,-,-,-,-,-,-,-,-,-,-,-,-,-,-,-,-,-,-,-,-,-,-,-,-,-,-,-,-,-,-,-,-,-,-,-,-,-,-,-,-,-,-,-
2025-05-15 11:08:15.850,BlockTimeStatus,233,23,Female,-,1,-,-,-,-,-,-,-,-,-,-,-,-,-,-,-,-,-,-,-,-,-,-,-,-,-,-,-,-,243.14,56.86,6,6.33,-,-,-,-,-,-,-,-,-,-,-,-,-,-,-,-,-,-,-,-,-,-,-,-,-
2025-05-15 11:08:15.861,TrialStart,233,23,Female,-,1,-,8,-,-,-,-,-,-,-,-,-,-,-,-,-,-,-,-,-,-,-,-,-,-,-,-,-,-,-,-,-,-,-,-,-,-,-,-,-,-,-,-,-,-,-,-,-,-,-,-,-,-,-,-,-,-,-
2025-05-15 11:08:16.046,InfoMessage,233,23,Female,-,-,-,-,-,-,-,-,-,-,-,-,-,-,-,-,-,-,-,-,-,-,-,-,-,-,-,-,-,-,-,-,-,-,-,-,-,-,-,-,-,-,-,-,-,-,-,-,-,-,-,-,-,-,-,-,-,-,-
2025-05-15 11:08:16.047,TrialStart,233,23,Female,-,1,-,8,-,-,-,-,-,-,-,-,-,-,-,-,-,-,-,-,-,-,-,-,-,-,-,-,-,-,-,-,-,-,-,-,-,-,-,-,-,-,-,-,-,-,-,-,-,-,-,-,-,-,-,-,-,-,-
2025-05-15 11:08:16.227,InfoMessage,233,23,Female,-,-,-,-,-,-,-,-,-,-,-,-,-,-,-,-,-,-,-,-,-,-,-,-,-,-,-,-,-,-,-,-,-,-,-,-,-,-,-,-,-,-,-,-,-,-,-,-,-,-,-,-,-,-,-,-,-,-,-
2025-05-15 11:08:18.697,ScoreUpdate,233,23,Female,False,1,-,8,-,-,-,-,-,-,0,20,0,-,-,-,-,-,-,-,-,-,-,-,-,-,-,-,-,-,-,-,-,-,-,-,-,-,-,-,-,-,-,-,-,-,-,-,-,-,-,-,-,-,-,-,-,-,-
2025-05-15 11:08:18.700,DecisionOutcome,233,23,Female,False,1,HighLowRatio,8,2,2,NoDecision,2.500,Timeout,False,0,20,0,0.000,-,-,-,-,-,-,-,-,-,0,-,-1.000,False,0.1,-,-,240.32,59.68,6,6.03,-,-,-,-,-,-,-,-,-,-,-,-,-,-,-,-,-,-,-,-,-,-,-,-,-
2025-05-15 11:08:18.701,PenaltyStart,233,23,Female,-,-,-,8,-,-,-,-,-,-,-,-,-,-,-,-,-,-,-,-,-,-,-,-,-,-,-,-,NoDecision,5,-,-,-,-,-,-,-,-,-,-,-,-,-,-,-,-,-,-,-,-,-,-,-,-,-,-,-,-,-
2025-05-15 11:08:23.967,BlockTimeStatus,233,23,Female,-,1,-,-,-,-,-,-,-,-,-,-,-,-,-,-,-,-,-,-,-,-,-,-,-,-,-,-,-,-,235.06,64.94,7,6.47,-,-,-,-,-,-,-,-,-,-,-,-,-,-,-,-,-,-,-,-,-,-,-,-,-
2025-05-15 11:08:23.977,TrialStart,233,23,Female,-,1,-,9,-,-,-,-,-,-,-,-,-,-,-,-,-,-,-,-,-,-,-,-,-,-,-,-,-,-,-,-,-,-,-,-,-,-,-,-,-,-,-,-,-,-,-,-,-,-,-,-,-,-,-,-,-,-,-
2025-05-15 11:08:24.174,InfoMessage,233,23,Female,-,-,-,-,-,-,-,-,-,-,-,-,-,-,-,-,-,-,-,-,-,-,-,-,-,-,-,-,-,-,-,-,-,-,-,-,-,-,-,-,-,-,-,-,-,-,-,-,-,-,-,-,-,-,-,-,-,-,-
2025-05-15 11:08:24.488,InfoMessage,233,23,Female,-,-,-,-,-,-,-,-,-,-,-,-,-,-,-,-,-,-,-,-,-,-,-,-,-,-,-,-,-,-,-,-,-,-,-,-,-,-,-,-,-,-,-,-,-,-,-,-,-,-,-,-,-,-,-,-,-,-,-
2025-05-15 11:08:25.550,BlockTimeStatus,233,23,Female,-,1,-,-,-,-,-,-,-,-,-,-,-,-,-,-,-,-,-,-,-,-,-,-,-,-,-,-,-,-,233.48,66.52,7,6.31,-,-,-,-,-,-,-,-,-,-,-,-,-,-,-,-,-,-,-,-,-,-,-,-,-
2025-05-15 11:08:29.677,MovementDuration,233,23,Female,-,-,-,9,-,-,-,-,Failure,-,-,-,-,0.000,-,-,-,-,-,-,-,-,-,-,-,-,-,-,-,-,-,-,-,-,-,-,-,-,-,-,-,-,-,-,-,-,-,-,-,-,-,-,-,-,-,-,-,-,-
2025-05-15 11:08:29.677,OutcomeType,233,23,Female,-,-,-,9,-,-,-,-,Failure,-,-,-,-,-,-,-,-,-,-,-,-,-,-,-,-,-,-,-,-,-,-,-,-,-,-,-,-,-,-,-,-,-,-,-,-,-,-,-,-,-,-,-,-,-,-,-,-,-,-
2025-05-15 11:08:29.678,RewardCollected,233,23,Female,-,-,-,9,-,-,-,-,-,-,-,-,-,-,-,-,-,-,-,-,-,-,-,-,-,-,-,-,-,-,-,-,-,-,-,-,-,-,-,-,-,-,-,-,-,-,-,-,-,-,-,-,-,-,-,-,-,-,-
2025-05-15 11:08:29.678,ButtonPresses,233,23,Female,-,-,-,9,-,-,-,-,-,-,-,-,-,-,-,-,-,-,-,-,-,-,-,0,-,-,-,-,-,-,-,-,-,-,-,-,-,-,-,-,-,-,-,-,-,-,-,-,-,-,-,-,-,-,-,-,-,-,-
2025-05-15 11:08:29.681,DecisionOutcome,233,23,Female,False,1,HighLowRatio,9,3,3,Work,0.000,Failure,False,0,20,0,0.000,-,-,-,-,-,-,-,-,-,0,-,-1.000,False,0.1,-,-,229.36,70.64,7,5.95,-,-,-,-,-,-,-,-,-,-,-,-,-,-,-,-,-,-,-,-,-,-,-,-,-
2025-05-15 11:08:29.681,ButtonPresses,233,23,Female,-,-,-,9,-,-,-,-,-,-,-,-,-,-,-,-,-,-,-,-,-,-,-,0,-,-,-,-,-,-,-,-,-,-,-,-,-,-,-,-,-,-,-,-,-,-,-,-,-,-,-,-,-,-,-,-,-,-,-
2025-05-15 11:08:29.681,MovementComplete,233,23,Female,-,-,-,9,-,-,-,-,-,False,-,-,-,-,-,-,-,-,-,-,-,-,-,-,-,-,-,-,-,-,-,-,-,-,-,-,-,-,-,-,-,-,-,-,-,-,-,-,-,-,-,-,-,-,-,-,-,-,-
2025-05-15 11:08:29.682,RewardCollected,233,23,Female,-,-,-,9,-,-,-,-,-,-,-,-,-,-,-,-,-,-,-,-,-,-,-,-,-,-,-,-,-,-,-,-,-,-,-,-,-,-,-,-,-,-,-,-,-,-,-,-,-,-,-,-,-,-,-,-,-,-,-
2025-05-15 11:08:29.778,BlockTimeStatus,233,23,Female,-,1,-,-,-,-,-,-,-,-,-,-,-,-,-,-,-,-,-,-,-,-,-,-,-,-,-,-,-,-,229.26,70.74,8,6.79,-,-,-,-,-,-,-,-,-,-,-,-,-,-,-,-,-,-,-,-,-,-,-,-,-
2025-05-15 11:08:29.790,TrialStart,233,23,Female,-,1,-,10,-,-,-,-,-,-,-,-,-,-,-,-,-,-,-,-,-,-,-,-,-,-,-,-,-,-,-,-,-,-,-,-,-,-,-,-,-,-,-,-,-,-,-,-,-,-,-,-,-,-,-,-,-,-,-
2025-05-15 11:08:29.984,InfoMessage,233,23,Female,-,-,-,-,-,-,-,-,-,-,-,-,-,-,-,-,-,-,-,-,-,-,-,-,-,-,-,-,-,-,-,-,-,-,-,-,-,-,-,-,-,-,-,-,-,-,-,-,-,-,-,-,-,-,-,-,-,-,-
2025-05-15 11:08:29.985,TrialStart,233,23,Female,-,1,-,10,-,-,-,-,-,-,-,-,-,-,-,-,-,-,-,-,-,-,-,-,-,-,-,-,-,-,-,-,-,-,-,-,-,-,-,-,-,-,-,-,-,-,-,-,-,-,-,-,-,-,-,-,-,-,-
2025-05-15 11:08:30.166,InfoMessage,233,23,Female,-,-,-,-,-,-,-,-,-,-,-,-,-,-,-,-,-,-,-,-,-,-,-,-,-,-,-,-,-,-,-,-,-,-,-,-,-,-,-,-,-,-,-,-,-,-,-,-,-,-,-,-,-,-,-,-,-,-,-
2025-05-15 11:08:30.917,InfoMessage,233,23,Female,-,-,-,-,-,-,-,-,-,-,-,-,-,-,-,-,-,-,-,-,-,-,-,-,-,-,-,-,-,-,-,-,-,-,-,-,-,-,-,-,-,-,-,-,-,-,-,-,-,-,-,-,-,-,-,-,-,-,-
2025-05-15 11:08:35.551,BlockTimeStatus,233,23,Female,-,1,-,-,-,-,-,-,-,-,-,-,-,-,-,-,-,-,-,-,-,-,-,-,-,-,-,-,-,-,223.51,76.49,8,6.28,-,-,-,-,-,-,-,-,-,-,-,-,-,-,-,-,-,-,-,-,-,-,-,-,-
2025-05-15 11:08:36.106,MovementDuration,233,23,Female,-,-,-,10,-,-,-,-,Failure,-,-,-,-,0.000,-,-,-,-,-,-,-,-,-,-,-,-,-,-,-,-,-,-,-,-,-,-,-,-,-,-,-,-,-,-,-,-,-,-,-,-,-,-,-,-,-,-,-,-,-
2025-05-15 11:08:36.107,OutcomeType,233,23,Female,-,-,-,10,-,-,-,-,Failure,-,-,-,-,-,-,-,-,-,-,-,-,-,-,-,-,-,-,-,-,-,-,-,-,-,-,-,-,-,-,-,-,-,-,-,-,-,-,-,-,-,-,-,-,-,-,-,-,-,-
2025-05-15 11:08:36.107,RewardCollected,233,23,Female,-,-,-,10,-,-,-,-,-,-,-,-,-,-,-,-,-,-,-,-,-,-,-,-,-,-,-,-,-,-,-,-,-,-,-,-,-,-,-,-,-,-,-,-,-,-,-,-,-,-,-,-,-,-,-,-,-,-,-
2025-05-15 11:08:36.108,ButtonPresses,233,23,Female,-,-,-,10,-,-,-,-,-,-,-,-,-,-,-,-,-,-,-,-,-,-,-,0,-,-,-,-,-,-,-,-,-,-,-,-,-,-,-,-,-,-,-,-,-,-,-,-,-,-,-,-,-,-,-,-,-,-,-
2025-05-15 11:08:36.110,DecisionOutcome,233,23,Female,False,1,HighLowRatio,10,1,1,Work,0.461,Failure,False,0,20,0,0.000,-,-,-,-,-,-,-,-,-,0,-,-1.000,False,0.1,-,-,222.95,77.05,8,6.23,-,-,-,-,-,-,-,-,-,-,-,-,-,-,-,-,-,-,-,-,-,-,-,-,-
2025-05-15 11:08:36.111,ButtonPresses,233,23,Female,-,-,-,10,-,-,-,-,-,-,-,-,-,-,-,-,-,-,-,-,-,-,-,0,-,-,-,-,-,-,-,-,-,-,-,-,-,-,-,-,-,-,-,-,-,-,-,-,-,-,-,-,-,-,-,-,-,-,-
2025-05-15 11:08:36.111,MovementComplete,233,23,Female,-,-,-,10,-,-,-,-,-,False,-,-,-,-,-,-,-,-,-,-,-,-,-,-,-,-,-,-,-,-,-,-,-,-,-,-,-,-,-,-,-,-,-,-,-,-,-,-,-,-,-,-,-,-,-,-,-,-,-
2025-05-15 11:08:36.111,RewardCollected,233,23,Female,-,-,-,10,-,-,-,-,-,-,-,-,-,-,-,-,-,-,-,-,-,-,-,-,-,-,-,-,-,-,-,-,-,-,-,-,-,-,-,-,-,-,-,-,-,-,-,-,-,-,-,-,-,-,-,-,-,-,-
2025-05-15 11:08:36.206,BlockTimeStatus,233,23,Female,-,1,-,-,-,-,-,-,-,-,-,-,-,-,-,-,-,-,-,-,-,-,-,-,-,-,-,-,-,-,222.85,77.15,9,7.00,-,-,-,-,-,-,-,-,-,-,-,-,-,-,-,-,-,-,-,-,-,-,-,-,-
2025-05-15 11:08:36.220,TrialStart,233,23,Female,-,1,-,11,-,-,-,-,-,-,-,-,-,-,-,-,-,-,-,-,-,-,-,-,-,-,-,-,-,-,-,-,-,-,-,-,-,-,-,-,-,-,-,-,-,-,-,-,-,-,-,-,-,-,-,-,-,-,-
2025-05-15 11:08:36.419,InfoMessage,233,23,Female,-,-,-,-,-,-,-,-,-,-,-,-,-,-,-,-,-,-,-,-,-,-,-,-,-,-,-,-,-,-,-,-,-,-,-,-,-,-,-,-,-,-,-,-,-,-,-,-,-,-,-,-,-,-,-,-,-,-,-
2025-05-15 11:08:36.421,TrialStart,233,23,Female,-,1,-,11,-,-,-,-,-,-,-,-,-,-,-,-,-,-,-,-,-,-,-,-,-,-,-,-,-,-,-,-,-,-,-,-,-,-,-,-,-,-,-,-,-,-,-,-,-,-,-,-,-,-,-,-,-,-,-
2025-05-15 11:08:36.597,InfoMessage,233,23,Female,-,-,-,-,-,-,-,-,-,-,-,-,-,-,-,-,-,-,-,-,-,-,-,-,-,-,-,-,-,-,-,-,-,-,-,-,-,-,-,-,-,-,-,-,-,-,-,-,-,-,-,-,-,-,-,-,-,-,-
2025-05-15 11:08:37.285,InfoMessage,233,23,Female,-,-,-,-,-,-,-,-,-,-,-,-,-,-,-,-,-,-,-,-,-,-,-,-,-,-,-,-,-,-,-,-,-,-,-,-,-,-,-,-,-,-,-,-,-,-,-,-,-,-,-,-,-,-,-,-,-,-,-
2025-05-15 11:08:42.474,MovementDuration,233,23,Female,-,-,-,11,-,-,-,-,Failure,-,-,-,-,0.000,-,-,-,-,-,-,-,-,-,-,-,-,-,-,-,-,-,-,-,-,-,-,-,-,-,-,-,-,-,-,-,-,-,-,-,-,-,-,-,-,-,-,-,-,-
2025-05-15 11:08:42.475,OutcomeType,233,23,Female,-,-,-,11,-,-,-,-,Failure,-,-,-,-,-,-,-,-,-,-,-,-,-,-,-,-,-,-,-,-,-,-,-,-,-,-,-,-,-,-,-,-,-,-,-,-,-,-,-,-,-,-,-,-,-,-,-,-,-,-
2025-05-15 11:08:42.475,RewardCollected,233,23,Female,-,-,-,11,-,-,-,-,-,-,-,-,-,-,-,-,-,-,-,-,-,-,-,-,-,-,-,-,-,-,-,-,-,-,-,-,-,-,-,-,-,-,-,-,-,-,-,-,-,-,-,-,-,-,-,-,-,-,-
2025-05-15 11:08:42.476,ButtonPresses,233,23,Female,-,-,-,11,-,-,-,-,-,-,-,-,-,-,-,-,-,-,-,-,-,-,-,0,-,-,-,-,-,-,-,-,-,-,-,-,-,-,-,-,-,-,-,-,-,-,-,-,-,-,-,-,-,-,-,-,-,-,-
2025-05-15 11:08:42.479,DecisionOutcome,233,23,Female,False,1,HighLowRatio,11,2,2,Work,0.398,Failure,False,0,20,0,0.000,-,-,-,-,-,-,-,-,-,0,-,-1.000,False,0.1,-,-,216.61,83.39,9,6.48,-,-,-,-,-,-,-,-,-,-,-,-,-,-,-,-,-,-,-,-,-,-,-,-,-
2025-05-15 11:08:42.479,ButtonPresses,233,23,Female,-,-,-,11,-,-,-,-,-,-,-,-,-,-,-,-,-,-,-,-,-,-,-,0,-,-,-,-,-,-,-,-,-,-,-,-,-,-,-,-,-,-,-,-,-,-,-,-,-,-,-,-,-,-,-,-,-,-,-
2025-05-15 11:08:42.480,MovementComplete,233,23,Female,-,-,-,11,-,-,-,-,-,False,-,-,-,-,-,-,-,-,-,-,-,-,-,-,-,-,-,-,-,-,-,-,-,-,-,-,-,-,-,-,-,-,-,-,-,-,-,-,-,-,-,-,-,-,-,-,-,-,-
2025-05-15 11:08:42.481,RewardCollected,233,23,Female,-,-,-,11,-,-,-,-,-,-,-,-,-,-,-,-,-,-,-,-,-,-,-,-,-,-,-,-,-,-,-,-,-,-,-,-,-,-,-,-,-,-,-,-,-,-,-,-,-,-,-,-,-,-,-,-,-,-,-
2025-05-15 11:08:42.575,BlockTimeStatus,233,23,Female,-,1,-,-,-,-,-,-,-,-,-,-,-,-,-,-,-,-,-,-,-,-,-,-,-,-,-,-,-,-,216.51,83.49,10,7.19,-,-,-,-,-,-,-,-,-,-,-,-,-,-,-,-,-,-,-,-,-,-,-,-,-
2025-05-15 11:08:42.588,TrialStart,233,23,Female,-,1,-,12,-,-,-,-,-,-,-,-,-,-,-,-,-,-,-,-,-,-,-,-,-,-,-,-,-,-,-,-,-,-,-,-,-,-,-,-,-,-,-,-,-,-,-,-,-,-,-,-,-,-,-,-,-,-,-
2025-05-15 11:08:42.774,InfoMessage,233,23,Female,-,-,-,-,-,-,-,-,-,-,-,-,-,-,-,-,-,-,-,-,-,-,-,-,-,-,-,-,-,-,-,-,-,-,-,-,-,-,-,-,-,-,-,-,-,-,-,-,-,-,-,-,-,-,-,-,-,-,-
2025-05-15 11:08:42.775,TrialStart,233,23,Female,-,1,-,12,-,-,-,-,-,-,-,-,-,-,-,-,-,-,-,-,-,-,-,-,-,-,-,-,-,-,-,-,-,-,-,-,-,-,-,-,-,-,-,-,-,-,-,-,-,-,-,-,-,-,-,-,-,-,-
2025-05-15 11:08:42.952,InfoMessage,233,23,Female,-,-,-,-,-,-,-,-,-,-,-,-,-,-,-,-,-,-,-,-,-,-,-,-,-,-,-,-,-,-,-,-,-,-,-,-,-,-,-,-,-,-,-,-,-,-,-,-,-,-,-,-,-,-,-,-,-,-,-
2025-05-15 11:08:43.829,InfoMessage,233,23,Female,-,-,-,-,-,-,-,-,-,-,-,-,-,-,-,-,-,-,-,-,-,-,-,-,-,-,-,-,-,-,-,-,-,-,-,-,-,-,-,-,-,-,-,-,-,-,-,-,-,-,-,-,-,-,-,-,-,-,-
2025-05-15 11:08:45.551,BlockTimeStatus,233,23,Female,-,1,-,-,-,-,-,-,-,-,-,-,-,-,-,-,-,-,-,-,-,-,-,-,-,-,-,-,-,-,213.56,86.44,10,6.94,-,-,-,-,-,-,-,-,-,-,-,-,-,-,-,-,-,-,-,-,-,-,-,-,-
2025-05-15 11:08:49.018,MovementDuration,233,23,Female,-,-,-,12,-,-,-,-,Failure,-,-,-,-,0.000,-,-,-,-,-,-,-,-,-,-,-,-,-,-,-,-,-,-,-,-,-,-,-,-,-,-,-,-,-,-,-,-,-,-,-,-,-,-,-,-,-,-,-,-,-
2025-05-15 11:08:49.018,OutcomeType,233,23,Female,-,-,-,12,-,-,-,-,Failure,-,-,-,-,-,-,-,-,-,-,-,-,-,-,-,-,-,-,-,-,-,-,-,-,-,-,-,-,-,-,-,-,-,-,-,-,-,-,-,-,-,-,-,-,-,-,-,-,-,-
2025-05-15 11:08:49.019,RewardCollected,233,23,Female,-,-,-,12,-,-,-,-,-,-,-,-,-,-,-,-,-,-,-,-,-,-,-,-,-,-,-,-,-,-,-,-,-,-,-,-,-,-,-,-,-,-,-,-,-,-,-,-,-,-,-,-,-,-,-,-,-,-,-
2025-05-15 11:08:49.019,ButtonPresses,233,23,Female,-,-,-,12,-,-,-,-,-,-,-,-,-,-,-,-,-,-,-,-,-,-,-,0,-,-,-,-,-,-,-,-,-,-,-,-,-,-,-,-,-,-,-,-,-,-,-,-,-,-,-,-,-,-,-,-,-,-,-
2025-05-15 11:08:49.022,DecisionOutcome,233,23,Female,False,1,HighLowRatio,12,1,1,Work,0.584,Failure,False,0,20,0,0.000,-,-,-,-,-,-,-,-,-,0,-,-1.000,False,0.1,-,-,210.10,89.90,10,6.67,-,-,-,-,-,-,-,-,-,-,-,-,-,-,-,-,-,-,-,-,-,-,-,-,-
2025-05-15 11:08:49.022,ButtonPresses,233,23,Female,-,-,-,12,-,-,-,-,-,-,-,-,-,-,-,-,-,-,-,-,-,-,-,0,-,-,-,-,-,-,-,-,-,-,-,-,-,-,-,-,-,-,-,-,-,-,-,-,-,-,-,-,-,-,-,-,-,-,-
2025-05-15 11:08:49.023,MovementComplete,233,23,Female,-,-,-,12,-,-,-,-,-,False,-,-,-,-,-,-,-,-,-,-,-,-,-,-,-,-,-,-,-,-,-,-,-,-,-,-,-,-,-,-,-,-,-,-,-,-,-,-,-,-,-,-,-,-,-,-,-,-,-
2025-05-15 11:08:49.023,RewardCollected,233,23,Female,-,-,-,12,-,-,-,-,-,-,-,-,-,-,-,-,-,-,-,-,-,-,-,-,-,-,-,-,-,-,-,-,-,-,-,-,-,-,-,-,-,-,-,-,-,-,-,-,-,-,-,-,-,-,-,-,-,-,-
2025-05-15 11:08:49.138,BlockTimeStatus,233,23,Female,-,1,-,-,-,-,-,-,-,-,-,-,-,-,-,-,-,-,-,-,-,-,-,-,-,-,-,-,-,-,209.99,90.01,11,7.33,-,-,-,-,-,-,-,-,-,-,-,-,-,-,-,-,-,-,-,-,-,-,-,-,-
2025-05-15 11:08:49.320,TrialStart,233,23,Female,-,1,-,13,-,-,-,-,-,-,-,-,-,-,-,-,-,-,-,-,-,-,-,-,-,-,-,-,-,-,-,-,-,-,-,-,-,-,-,-,-,-,-,-,-,-,-,-,-,-,-,-,-,-,-,-,-,-,-
2025-05-15 11:08:49.628,InfoMessage,233,23,Female,-,-,-,-,-,-,-,-,-,-,-,-,-,-,-,-,-,-,-,-,-,-,-,-,-,-,-,-,-,-,-,-,-,-,-,-,-,-,-,-,-,-,-,-,-,-,-,-,-,-,-,-,-,-,-,-,-,-,-
2025-05-15 11:08:49.633,TrialStart,233,23,Female,-,1,-,13,-,-,-,-,-,-,-,-,-,-,-,-,-,-,-,-,-,-,-,-,-,-,-,-,-,-,-,-,-,-,-,-,-,-,-,-,-,-,-,-,-,-,-,-,-,-,-,-,-,-,-,-,-,-,-
2025-05-15 11:08:49.839,InfoMessage,233,23,Female,-,-,-,-,-,-,-,-,-,-,-,-,-,-,-,-,-,-,-,-,-,-,-,-,-,-,-,-,-,-,-,-,-,-,-,-,-,-,-,-,-,-,-,-,-,-,-,-,-,-,-,-,-,-,-,-,-,-,-
2025-05-15 11:08:50.742,InfoMessage,233,23,Female,-,-,-,-,-,-,-,-,-,-,-,-,-,-,-,-,-,-,-,-,-,-,-,-,-,-,-,-,-,-,-,-,-,-,-,-,-,-,-,-,-,-,-,-,-,-,-,-,-,-,-,-,-,-,-,-,-,-,-
2025-05-15 11:08:55.551,BlockTimeStatus,233,23,Female,-,1,-,-,-,-,-,-,-,-,-,-,-,-,-,-,-,-,-,-,-,-,-,-,-,-,-,-,-,-,203.62,96.38,11,6.85,-,-,-,-,-,-,-,-,-,-,-,-,-,-,-,-,-,-,-,-,-,-,-,-,-
2025-05-15 11:08:55.934,MovementDuration,233,23,Female,-,-,-,13,-,-,-,-,Failure,-,-,-,-,0.000,-,-,-,-,-,-,-,-,-,-,-,-,-,-,-,-,-,-,-,-,-,-,-,-,-,-,-,-,-,-,-,-,-,-,-,-,-,-,-,-,-,-,-,-,-
2025-05-15 11:08:55.934,OutcomeType,233,23,Female,-,-,-,13,-,-,-,-,Failure,-,-,-,-,-,-,-,-,-,-,-,-,-,-,-,-,-,-,-,-,-,-,-,-,-,-,-,-,-,-,-,-,-,-,-,-,-,-,-,-,-,-,-,-,-,-,-,-,-,-
2025-05-15 11:08:55.934,RewardCollected,233,23,Female,-,-,-,13,-,-,-,-,-,-,-,-,-,-,-,-,-,-,-,-,-,-,-,-,-,-,-,-,-,-,-,-,-,-,-,-,-,-,-,-,-,-,-,-,-,-,-,-,-,-,-,-,-,-,-,-,-,-,-
2025-05-15 11:08:55.935,ButtonPresses,233,23,Female,-,-,-,13,-,-,-,-,-,-,-,-,-,-,-,-,-,-,-,-,-,-,-,0,-,-,-,-,-,-,-,-,-,-,-,-,-,-,-,-,-,-,-,-,-,-,-,-,-,-,-,-,-,-,-,-,-,-,-
2025-05-15 11:08:55.937,DecisionOutcome,233,23,Female,False,1,HighLowRatio,13,1,1,Work,0.563,Failure,False,0,20,0,0.000,-,-,-,-,-,-,-,-,-,0,-,-1.000,False,0.1,-,-,203.24,96.76,11,6.82,-,-,-,-,-,-,-,-,-,-,-,-,-,-,-,-,-,-,-,-,-,-,-,-,-
2025-05-15 11:08:55.938,ButtonPresses,233,23,Female,-,-,-,13,-,-,-,-,-,-,-,-,-,-,-,-,-,-,-,-,-,-,-,0,-,-,-,-,-,-,-,-,-,-,-,-,-,-,-,-,-,-,-,-,-,-,-,-,-,-,-,-,-,-,-,-,-,-,-
2025-05-15 11:08:55.938,MovementComplete,233,23,Female,-,-,-,13,-,-,-,-,-,False,-,-,-,-,-,-,-,-,-,-,-,-,-,-,-,-,-,-,-,-,-,-,-,-,-,-,-,-,-,-,-,-,-,-,-,-,-,-,-,-,-,-,-,-,-,-,-,-,-
2025-05-15 11:08:55.939,RewardCollected,233,23,Female,-,-,-,13,-,-,-,-,-,-,-,-,-,-,-,-,-,-,-,-,-,-,-,-,-,-,-,-,-,-,-,-,-,-,-,-,-,-,-,-,-,-,-,-,-,-,-,-,-,-,-,-,-,-,-,-,-,-,-
2025-05-15 11:08:56.034,BlockTimeStatus,233,23,Female,-,1,-,-,-,-,-,-,-,-,-,-,-,-,-,-,-,-,-,-,-,-,-,-,-,-,-,-,-,-,203.14,96.86,12,7.43,-,-,-,-,-,-,-,-,-,-,-,-,-,-,-,-,-,-,-,-,-,-,-,-,-
2025-05-15 11:08:56.049,TrialStart,233,23,Female,-,1,-,14,-,-,-,-,-,-,-,-,-,-,-,-,-,-,-,-,-,-,-,-,-,-,-,-,-,-,-,-,-,-,-,-,-,-,-,-,-,-,-,-,-,-,-,-,-,-,-,-,-,-,-,-,-,-,-
2025-05-15 11:08:56.238,InfoMessage,233,23,Female,-,-,-,-,-,-,-,-,-,-,-,-,-,-,-,-,-,-,-,-,-,-,-,-,-,-,-,-,-,-,-,-,-,-,-,-,-,-,-,-,-,-,-,-,-,-,-,-,-,-,-,-,-,-,-,-,-,-,-
2025-05-15 11:08:56.240,TrialStart,233,23,Female,-,1,-,14,-,-,-,-,-,-,-,-,-,-,-,-,-,-,-,-,-,-,-,-,-,-,-,-,-,-,-,-,-,-,-,-,-,-,-,-,-,-,-,-,-,-,-,-,-,-,-,-,-,-,-,-,-,-,-
2025-05-15 11:08:56.423,InfoMessage,233,23,Female,-,-,-,-,-,-,-,-,-,-,-,-,-,-,-,-,-,-,-,-,-,-,-,-,-,-,-,-,-,-,-,-,-,-,-,-,-,-,-,-,-,-,-,-,-,-,-,-,-,-,-,-,-,-,-,-,-,-,-
2025-05-15 11:08:56.745,InfoMessage,233,23,Female,-,-,-,-,-,-,-,-,-,-,-,-,-,-,-,-,-,-,-,-,-,-,-,-,-,-,-,-,-,-,-,-,-,-,-,-,-,-,-,-,-,-,-,-,-,-,-,-,-,-,-,-,-,-,-,-,-,-,-
2025-05-15 11:09:01.935,MovementDuration,233,23,Female,-,-,-,14,-,-,-,-,Failure,-,-,-,-,0.000,-,-,-,-,-,-,-,-,-,-,-,-,-,-,-,-,-,-,-,-,-,-,-,-,-,-,-,-,-,-,-,-,-,-,-,-,-,-,-,-,-,-,-,-,-
2025-05-15 11:09:01.935,OutcomeType,233,23,Female,-,-,-,14,-,-,-,-,Failure,-,-,-,-,-,-,-,-,-,-,-,-,-,-,-,-,-,-,-,-,-,-,-,-,-,-,-,-,-,-,-,-,-,-,-,-,-,-,-,-,-,-,-,-,-,-,-,-,-,-
2025-05-15 11:09:01.936,RewardCollected,233,23,Female,-,-,-,14,-,-,-,-,-,-,-,-,-,-,-,-,-,-,-,-,-,-,-,-,-,-,-,-,-,-,-,-,-,-,-,-,-,-,-,-,-,-,-,-,-,-,-,-,-,-,-,-,-,-,-,-,-,-,-
2025-05-15 11:09:01.936,ButtonPresses,233,23,Female,-,-,-,14,-,-,-,-,-,-,-,-,-,-,-,-,-,-,-,-,-,-,-,0,-,-,-,-,-,-,-,-,-,-,-,-,-,-,-,-,-,-,-,-,-,-,-,-,-,-,-,-,-,-,-,-,-,-,-
2025-05-15 11:09:01.939,DecisionOutcome,233,23,Female,False,1,HighLowRatio,14,2,2,Work,0.000,Failure,False,0,20,0,0.000,-,-,-,-,-,-,-,-,-,0,-,-1.000,False,0.1,-,-,197.27,102.74,12,7.01,-,-,-,-,-,-,-,-,-,-,-,-,-,-,-,-,-,-,-,-,-,-,-,-,-
2025-05-15 11:09:01.940,ButtonPresses,233,23,Female,-,-,-,14,-,-,-,-,-,-,-,-,-,-,-,-,-,-,-,-,-,-,-,0,-,-,-,-,-,-,-,-,-,-,-,-,-,-,-,-,-,-,-,-,-,-,-,-,-,-,-,-,-,-,-,-,-,-,-
2025-05-15 11:09:01.940,MovementComplete,233,23,Female,-,-,-,14,-,-,-,-,-,False,-,-,-,-,-,-,-,-,-,-,-,-,-,-,-,-,-,-,-,-,-,-,-,-,-,-,-,-,-,-,-,-,-,-,-,-,-,-,-,-,-,-,-,-,-,-,-,-,-
2025-05-15 11:09:01.940,RewardCollected,233,23,Female,-,-,-,14,-,-,-,-,-,-,-,-,-,-,-,-,-,-,-,-,-,-,-,-,-,-,-,-,-,-,-,-,-,-,-,-,-,-,-,-,-,-,-,-,-,-,-,-,-,-,-,-,-,-,-,-,-,-,-
2025-05-15 11:09:02.035,BlockTimeStatus,233,23,Female,-,1,-,-,-,-,-,-,-,-,-,-,-,-,-,-,-,-,-,-,-,-,-,-,-,-,-,-,-,-,197.16,102.84,13,7.58,-,-,-,-,-,-,-,-,-,-,-,-,-,-,-,-,-,-,-,-,-,-,-,-,-
2025-05-15 11:09:02.049,TrialStart,233,23,Female,-,1,-,15,-,-,-,-,-,-,-,-,-,-,-,-,-,-,-,-,-,-,-,-,-,-,-,-,-,-,-,-,-,-,-,-,-,-,-,-,-,-,-,-,-,-,-,-,-,-,-,-,-,-,-,-,-,-,-
2025-05-15 11:09:02.248,InfoMessage,233,23,Female,-,-,-,-,-,-,-,-,-,-,-,-,-,-,-,-,-,-,-,-,-,-,-,-,-,-,-,-,-,-,-,-,-,-,-,-,-,-,-,-,-,-,-,-,-,-,-,-,-,-,-,-,-,-,-,-,-,-,-
2025-05-15 11:09:02.250,TrialStart,233,23,Female,-,1,-,15,-,-,-,-,-,-,-,-,-,-,-,-,-,-,-,-,-,-,-,-,-,-,-,-,-,-,-,-,-,-,-,-,-,-,-,-,-,-,-,-,-,-,-,-,-,-,-,-,-,-,-,-,-,-,-
2025-05-15 11:09:02.428,InfoMessage,233,23,Female,-,-,-,-,-,-,-,-,-,-,-,-,-,-,-,-,-,-,-,-,-,-,-,-,-,-,-,-,-,-,-,-,-,-,-,-,-,-,-,-,-,-,-,-,-,-,-,-,-,-,-,-,-,-,-,-,-,-,-
2025-05-15 11:09:03.420,InfoMessage,233,23,Female,-,-,-,-,-,-,-,-,-,-,-,-,-,-,-,-,-,-,-,-,-,-,-,-,-,-,-,-,-,-,-,-,-,-,-,-,-,-,-,-,-,-,-,-,-,-,-,-,-,-,-,-,-,-,-,-,-,-,-
2025-05-15 11:09:05.552,BlockTimeStatus,233,23,Female,-,1,-,-,-,-,-,-,-,-,-,-,-,-,-,-,-,-,-,-,-,-,-,-,-,-,-,-,-,-,193.67,106.33,13,7.34,-,-,-,-,-,-,-,-,-,-,-,-,-,-,-,-,-,-,-,-,-,-,-,-,-
2025-05-15 11:09:08.609,MovementDuration,233,23,Female,-,-,-,15,-,-,-,-,Failure,-,-,-,-,0.000,-,-,-,-,-,-,-,-,-,-,-,-,-,-,-,-,-,-,-,-,-,-,-,-,-,-,-,-,-,-,-,-,-,-,-,-,-,-,-,-,-,-,-,-,-
2025-05-15 11:09:08.610,OutcomeType,233,23,Female,-,-,-,15,-,-,-,-,Failure,-,-,-,-,-,-,-,-,-,-,-,-,-,-,-,-,-,-,-,-,-,-,-,-,-,-,-,-,-,-,-,-,-,-,-,-,-,-,-,-,-,-,-,-,-,-,-,-,-,-
2025-05-15 11:09:08.610,RewardCollected,233,23,Female,-,-,-,15,-,-,-,-,-,-,-,-,-,-,-,-,-,-,-,-,-,-,-,-,-,-,-,-,-,-,-,-,-,-,-,-,-,-,-,-,-,-,-,-,-,-,-,-,-,-,-,-,-,-,-,-,-,-,-
2025-05-15 11:09:08.610,ButtonPresses,233,23,Female,-,-,-,15,-,-,-,-,-,-,-,-,-,-,-,-,-,-,-,-,-,-,-,0,-,-,-,-,-,-,-,-,-,-,-,-,-,-,-,-,-,-,-,-,-,-,-,-,-,-,-,-,-,-,-,-,-,-,-
2025-05-15 11:09:08.613,DecisionOutcome,233,23,Female,False,1,HighLowRatio,15,3,3,Work,0.707,Failure,False,0,20,0,0.000,-,-,-,-,-,-,-,-,-,0,-,-1.000,False,0.1,-,-,190.62,109.38,13,7.13,-,-,-,-,-,-,-,-,-,-,-,-,-,-,-,-,-,-,-,-,-,-,-,-,-
2025-05-15 11:09:08.613,ButtonPresses,233,23,Female,-,-,-,15,-,-,-,-,-,-,-,-,-,-,-,-,-,-,-,-,-,-,-,0,-,-,-,-,-,-,-,-,-,-,-,-,-,-,-,-,-,-,-,-,-,-,-,-,-,-,-,-,-,-,-,-,-,-,-
2025-05-15 11:09:08.614,MovementComplete,233,23,Female,-,-,-,15,-,-,-,-,-,False,-,-,-,-,-,-,-,-,-,-,-,-,-,-,-,-,-,-,-,-,-,-,-,-,-,-,-,-,-,-,-,-,-,-,-,-,-,-,-,-,-,-,-,-,-,-,-,-,-
2025-05-15 11:09:08.614,RewardCollected,233,23,Female,-,-,-,15,-,-,-,-,-,-,-,-,-,-,-,-,-,-,-,-,-,-,-,-,-,-,-,-,-,-,-,-,-,-,-,-,-,-,-,-,-,-,-,-,-,-,-,-,-,-,-,-,-,-,-,-,-,-,-
2025-05-15 11:09:08.709,BlockTimeStatus,233,23,Female,-,1,-,-,-,-,-,-,-,-,-,-,-,-,-,-,-,-,-,-,-,-,-,-,-,-,-,-,-,-,190.52,109.48,14,7.67,-,-,-,-,-,-,-,-,-,-,-,-,-,-,-,-,-,-,-,-,-,-,-,-,-
2025-05-15 11:09:08.721,TrialStart,233,23,Female,-,1,-,16,-,-,-,-,-,-,-,-,-,-,-,-,-,-,-,-,-,-,-,-,-,-,-,-,-,-,-,-,-,-,-,-,-,-,-,-,-,-,-,-,-,-,-,-,-,-,-,-,-,-,-,-,-,-,-
2025-05-15 11:09:08.905,InfoMessage,233,23,Female,-,-,-,-,-,-,-,-,-,-,-,-,-,-,-,-,-,-,-,-,-,-,-,-,-,-,-,-,-,-,-,-,-,-,-,-,-,-,-,-,-,-,-,-,-,-,-,-,-,-,-,-,-,-,-,-,-,-,-
2025-05-15 11:09:08.907,TrialStart,233,23,Female,-,1,-,16,-,-,-,-,-,-,-,-,-,-,-,-,-,-,-,-,-,-,-,-,-,-,-,-,-,-,-,-,-,-,-,-,-,-,-,-,-,-,-,-,-,-,-,-,-,-,-,-,-,-,-,-,-,-,-
2025-05-15 11:09:09.085,InfoMessage,233,23,Female,-,-,-,-,-,-,-,-,-,-,-,-,-,-,-,-,-,-,-,-,-,-,-,-,-,-,-,-,-,-,-,-,-,-,-,-,-,-,-,-,-,-,-,-,-,-,-,-,-,-,-,-,-,-,-,-,-,-,-
2025-05-15 11:09:10.001,InfoMessage,233,23,Female,-,-,-,-,-,-,-,-,-,-,-,-,-,-,-,-,-,-,-,-,-,-,-,-,-,-,-,-,-,-,-,-,-,-,-,-,-,-,-,-,-,-,-,-,-,-,-,-,-,-,-,-,-,-,-,-,-,-,-
2025-05-15 11:09:15.191,MovementDuration,233,23,Female,-,-,-,16,-,-,-,-,Failure,-,-,-,-,0.000,-,-,-,-,-,-,-,-,-,-,-,-,-,-,-,-,-,-,-,-,-,-,-,-,-,-,-,-,-,-,-,-,-,-,-,-,-,-,-,-,-,-,-,-,-
2025-05-15 11:09:15.191,OutcomeType,233,23,Female,-,-,-,16,-,-,-,-,Failure,-,-,-,-,-,-,-,-,-,-,-,-,-,-,-,-,-,-,-,-,-,-,-,-,-,-,-,-,-,-,-,-,-,-,-,-,-,-,-,-,-,-,-,-,-,-,-,-,-,-
2025-05-15 11:09:15.191,RewardCollected,233,23,Female,-,-,-,16,-,-,-,-,-,-,-,-,-,-,-,-,-,-,-,-,-,-,-,-,-,-,-,-,-,-,-,-,-,-,-,-,-,-,-,-,-,-,-,-,-,-,-,-,-,-,-,-,-,-,-,-,-,-,-
2025-05-15 11:09:15.192,ButtonPresses,233,23,Female,-,-,-,16,-,-,-,-,-,-,-,-,-,-,-,-,-,-,-,-,-,-,-,0,-,-,-,-,-,-,-,-,-,-,-,-,-,-,-,-,-,-,-,-,-,-,-,-,-,-,-,-,-,-,-,-,-,-,-
2025-05-15 11:09:15.194,DecisionOutcome,233,23,Female,False,1,HighLowRatio,16,1,1,Work,0.614,Failure,False,0,20,0,0.000,-,-,-,-,-,-,-,-,-,0,-,-1.000,False,0.1,-,-,184.06,115.94,14,7.24,-,-,-,-,-,-,-,-,-,-,-,-,-,-,-,-,-,-,-,-,-,-,-,-,-
2025-05-15 11:09:15.195,ButtonPresses,233,23,Female,-,-,-,16,-,-,-,-,-,-,-,-,-,-,-,-,-,-,-,-,-,-,-,0,-,-,-,-,-,-,-,-,-,-,-,-,-,-,-,-,-,-,-,-,-,-,-,-,-,-,-,-,-,-,-,-,-,-,-
2025-05-15 11:09:15.195,MovementComplete,233,23,Female,-,-,-,16,-,-,-,-,-,False,-,-,-,-,-,-,-,-,-,-,-,-,-,-,-,-,-,-,-,-,-,-,-,-,-,-,-,-,-,-,-,-,-,-,-,-,-,-,-,-,-,-,-,-,-,-,-,-,-
2025-05-15 11:09:15.195,RewardCollected,233,23,Female,-,-,-,16,-,-,-,-,-,-,-,-,-,-,-,-,-,-,-,-,-,-,-,-,-,-,-,-,-,-,-,-,-,-,-,-,-,-,-,-,-,-,-,-,-,-,-,-,-,-,-,-,-,-,-,-,-,-,-
2025-05-15 11:09:15.292,BlockTimeStatus,233,23,Female,-,1,-,-,-,-,-,-,-,-,-,-,-,-,-,-,-,-,-,-,-,-,-,-,-,-,-,-,-,-,183.96,116.04,15,7.76,-,-,-,-,-,-,-,-,-,-,-,-,-,-,-,-,-,-,-,-,-,-,-,-,-
2025-05-15 11:09:15.304,TrialStart,233,23,Female,-,1,-,17,-,-,-,-,-,-,-,-,-,-,-,-,-,-,-,-,-,-,-,-,-,-,-,-,-,-,-,-,-,-,-,-,-,-,-,-,-,-,-,-,-,-,-,-,-,-,-,-,-,-,-,-,-,-,-
2025-05-15 11:09:15.491,InfoMessage,233,23,Female,-,-,-,-,-,-,-,-,-,-,-,-,-,-,-,-,-,-,-,-,-,-,-,-,-,-,-,-,-,-,-,-,-,-,-,-,-,-,-,-,-,-,-,-,-,-,-,-,-,-,-,-,-,-,-,-,-,-,-
2025-05-15 11:09:15.492,TrialStart,233,23,Female,-,1,-,17,-,-,-,-,-,-,-,-,-,-,-,-,-,-,-,-,-,-,-,-,-,-,-,-,-,-,-,-,-,-,-,-,-,-,-,-,-,-,-,-,-,-,-,-,-,-,-,-,-,-,-,-,-,-,-
2025-05-15 11:09:15.667,InfoMessage,233,23,Female,-,-,-,-,-,-,-,-,-,-,-,-,-,-,-,-,-,-,-,-,-,-,-,-,-,-,-,-,-,-,-,-,-,-,-,-,-,-,-,-,-,-,-,-,-,-,-,-,-,-,-,-,-,-,-,-,-,-,-
2025-05-15 11:09:15.673,BlockTimeStatus,233,23,Female,-,1,-,-,-,-,-,-,-,-,-,-,-,-,-,-,-,-,-,-,-,-,-,-,-,-,-,-,-,-,183.60,116.40,15,7.73,-,-,-,-,-,-,-,-,-,-,-,-,-,-,-,-,-,-,-,-,-,-,-,-,-
2025-05-15 11:09:17.469,InfoMessage,233,23,Female,-,-,-,-,-,-,-,-,-,-,-,-,-,-,-,-,-,-,-,-,-,-,-,-,-,-,-,-,-,-,-,-,-,-,-,-,-,-,-,-,-,-,-,-,-,-,-,-,-,-,-,-,-,-,-,-,-,-,-
2025-05-15 11:09:22.659,MovementDuration,233,23,Female,-,-,-,17,-,-,-,-,Failure,-,-,-,-,0.000,-,-,-,-,-,-,-,-,-,-,-,-,-,-,-,-,-,-,-,-,-,-,-,-,-,-,-,-,-,-,-,-,-,-,-,-,-,-,-,-,-,-,-,-,-
2025-05-15 11:09:22.659,OutcomeType,233,23,Female,-,-,-,17,-,-,-,-,Failure,-,-,-,-,-,-,-,-,-,-,-,-,-,-,-,-,-,-,-,-,-,-,-,-,-,-,-,-,-,-,-,-,-,-,-,-,-,-,-,-,-,-,-,-,-,-,-,-,-,-
2025-05-15 11:09:22.660,RewardCollected,233,23,Female,-,-,-,17,-,-,-,-,-,-,-,-,-,-,-,-,-,-,-,-,-,-,-,-,-,-,-,-,-,-,-,-,-,-,-,-,-,-,-,-,-,-,-,-,-,-,-,-,-,-,-,-,-,-,-,-,-,-,-
2025-05-15 11:09:22.660,ButtonPresses,233,23,Female,-,-,-,17,-,-,-,-,-,-,-,-,-,-,-,-,-,-,-,-,-,-,-,0,-,-,-,-,-,-,-,-,-,-,-,-,-,-,-,-,-,-,-,-,-,-,-,-,-,-,-,-,-,-,-,-,-,-,-
2025-05-15 11:09:22.662,DecisionOutcome,233,23,Female,False,1,HighLowRatio,17,2,2,Work,1.512,Failure,False,0,20,0,0.000,-,-,-,-,-,-,-,-,-,0,-,-1.000,False,0.1,-,-,176.61,123.39,15,7.29,-,-,-,-,-,-,-,-,-,-,-,-,-,-,-,-,-,-,-,-,-,-,-,-,-
2025-05-15 11:09:22.663,ButtonPresses,233,23,Female,-,-,-,17,-,-,-,-,-,-,-,-,-,-,-,-,-,-,-,-,-,-,-,0,-,-,-,-,-,-,-,-,-,-,-,-,-,-,-,-,-,-,-,-,-,-,-,-,-,-,-,-,-,-,-,-,-,-,-
2025-05-15 11:09:22.663,MovementComplete,233,23,Female,-,-,-,17,-,-,-,-,-,False,-,-,-,-,-,-,-,-,-,-,-,-,-,-,-,-,-,-,-,-,-,-,-,-,-,-,-,-,-,-,-,-,-,-,-,-,-,-,-,-,-,-,-,-,-,-,-,-,-
2025-05-15 11:09:22.664,RewardCollected,233,23,Female,-,-,-,17,-,-,-,-,-,-,-,-,-,-,-,-,-,-,-,-,-,-,-,-,-,-,-,-,-,-,-,-,-,-,-,-,-,-,-,-,-,-,-,-,-,-,-,-,-,-,-,-,-,-,-,-,-,-,-
2025-05-15 11:09:22.759,BlockTimeStatus,233,23,Female,-,1,-,-,-,-,-,-,-,-,-,-,-,-,-,-,-,-,-,-,-,-,-,-,-,-,-,-,-,-,176.51,123.49,16,7.77,-,-,-,-,-,-,-,-,-,-,-,-,-,-,-,-,-,-,-,-,-,-,-,-,-
2025-05-15 11:09:22.771,TrialStart,233,23,Female,-,1,-,18,-,-,-,-,-,-,-,-,-,-,-,-,-,-,-,-,-,-,-,-,-,-,-,-,-,-,-,-,-,-,-,-,-,-,-,-,-,-,-,-,-,-,-,-,-,-,-,-,-,-,-,-,-,-,-
2025-05-15 11:09:22.961,InfoMessage,233,23,Female,-,-,-,-,-,-,-,-,-,-,-,-,-,-,-,-,-,-,-,-,-,-,-,-,-,-,-,-,-,-,-,-,-,-,-,-,-,-,-,-,-,-,-,-,-,-,-,-,-,-,-,-,-,-,-,-,-,-,-
2025-05-15 11:09:22.963,TrialStart,233,23,Female,-,1,-,18,-,-,-,-,-,-,-,-,-,-,-,-,-,-,-,-,-,-,-,-,-,-,-,-,-,-,-,-,-,-,-,-,-,-,-,-,-,-,-,-,-,-,-,-,-,-,-,-,-,-,-,-,-,-,-
2025-05-15 11:09:23.142,InfoMessage,233,23,Female,-,-,-,-,-,-,-,-,-,-,-,-,-,-,-,-,-,-,-,-,-,-,-,-,-,-,-,-,-,-,-,-,-,-,-,-,-,-,-,-,-,-,-,-,-,-,-,-,-,-,-,-,-,-,-,-,-,-,-
2025-05-15 11:09:25.138,InfoMessage,233,23,Female,-,-,-,-,-,-,-,-,-,-,-,-,-,-,-,-,-,-,-,-,-,-,-,-,-,-,-,-,-,-,-,-,-,-,-,-,-,-,-,-,-,-,-,-,-,-,-,-,-,-,-,-,-,-,-,-,-,-,-
2025-05-15 11:09:25.552,BlockTimeStatus,233,23,Female,-,1,-,-,-,-,-,-,-,-,-,-,-,-,-,-,-,-,-,-,-,-,-,-,-,-,-,-,-,-,173.75,126.26,16,7.60,-,-,-,-,-,-,-,-,-,-,-,-,-,-,-,-,-,-,-,-,-,-,-,-,-
2025-05-15 11:09:30.326,MovementDuration,233,23,Female,-,-,-,18,-,-,-,-,Failure,-,-,-,-,0.000,-,-,-,-,-,-,-,-,-,-,-,-,-,-,-,-,-,-,-,-,-,-,-,-,-,-,-,-,-,-,-,-,-,-,-,-,-,-,-,-,-,-,-,-,-
2025-05-15 11:09:30.327,OutcomeType,233,23,Female,-,-,-,18,-,-,-,-,Failure,-,-,-,-,-,-,-,-,-,-,-,-,-,-,-,-,-,-,-,-,-,-,-,-,-,-,-,-,-,-,-,-,-,-,-,-,-,-,-,-,-,-,-,-,-,-,-,-,-,-
2025-05-15 11:09:30.327,RewardCollected,233,23,Female,-,-,-,18,-,-,-,-,-,-,-,-,-,-,-,-,-,-,-,-,-,-,-,-,-,-,-,-,-,-,-,-,-,-,-,-,-,-,-,-,-,-,-,-,-,-,-,-,-,-,-,-,-,-,-,-,-,-,-
2025-05-15 11:09:30.327,ButtonPresses,233,23,Female,-,-,-,18,-,-,-,-,-,-,-,-,-,-,-,-,-,-,-,-,-,-,-,0,-,-,-,-,-,-,-,-,-,-,-,-,-,-,-,-,-,-,-,-,-,-,-,-,-,-,-,-,-,-,-,-,-,-,-
2025-05-15 11:09:30.330,DecisionOutcome,233,23,Female,False,1,HighLowRatio,18,1,1,Work,1.708,Failure,False,0,20,0,0.000,-,-,-,-,-,-,-,-,-,0,-,-1.000,False,0.1,-,-,168.97,131.03,16,7.33,-,-,-,-,-,-,-,-,-,-,-,-,-,-,-,-,-,-,-,-,-,-,-,-,-
2025-05-15 11:09:30.330,ButtonPresses,233,23,Female,-,-,-,18,-,-,-,-,-,-,-,-,-,-,-,-,-,-,-,-,-,-,-,0,-,-,-,-,-,-,-,-,-,-,-,-,-,-,-,-,-,-,-,-,-,-,-,-,-,-,-,-,-,-,-,-,-,-,-
2025-05-15 11:09:30.330,MovementComplete,233,23,Female,-,-,-,18,-,-,-,-,-,False,-,-,-,-,-,-,-,-,-,-,-,-,-,-,-,-,-,-,-,-,-,-,-,-,-,-,-,-,-,-,-,-,-,-,-,-,-,-,-,-,-,-,-,-,-,-,-,-,-
2025-05-15 11:09:30.331,RewardCollected,233,23,Female,-,-,-,18,-,-,-,-,-,-,-,-,-,-,-,-,-,-,-,-,-,-,-,-,-,-,-,-,-,-,-,-,-,-,-,-,-,-,-,-,-,-,-,-,-,-,-,-,-,-,-,-,-,-,-,-,-,-,-
2025-05-15 11:09:30.427,BlockTimeStatus,233,23,Female,-,1,-,-,-,-,-,-,-,-,-,-,-,-,-,-,-,-,-,-,-,-,-,-,-,-,-,-,-,-,168.87,131.13,17,7.78,-,-,-,-,-,-,-,-,-,-,-,-,-,-,-,-,-,-,-,-,-,-,-,-,-
2025-05-15 11:09:30.440,TrialStart,233,23,Female,-,1,-,19,-,-,-,-,-,-,-,-,-,-,-,-,-,-,-,-,-,-,-,-,-,-,-,-,-,-,-,-,-,-,-,-,-,-,-,-,-,-,-,-,-,-,-,-,-,-,-,-,-,-,-,-,-,-,-
2025-05-15 11:09:30.623,InfoMessage,233,23,Female,-,-,-,-,-,-,-,-,-,-,-,-,-,-,-,-,-,-,-,-,-,-,-,-,-,-,-,-,-,-,-,-,-,-,-,-,-,-,-,-,-,-,-,-,-,-,-,-,-,-,-,-,-,-,-,-,-,-,-
2025-05-15 11:09:30.624,TrialStart,233,23,Female,-,1,-,19,-,-,-,-,-,-,-,-,-,-,-,-,-,-,-,-,-,-,-,-,-,-,-,-,-,-,-,-,-,-,-,-,-,-,-,-,-,-,-,-,-,-,-,-,-,-,-,-,-,-,-,-,-,-,-
2025-05-15 11:09:30.807,InfoMessage,233,23,Female,-,-,-,-,-,-,-,-,-,-,-,-,-,-,-,-,-,-,-,-,-,-,-,-,-,-,-,-,-,-,-,-,-,-,-,-,-,-,-,-,-,-,-,-,-,-,-,-,-,-,-,-,-,-,-,-,-,-,-
2025-05-15 11:09:31.804,InfoMessage,233,23,Female,-,-,-,-,-,-,-,-,-,-,-,-,-,-,-,-,-,-,-,-,-,-,-,-,-,-,-,-,-,-,-,-,-,-,-,-,-,-,-,-,-,-,-,-,-,-,-,-,-,-,-,-,-,-,-,-,-,-,-
2025-05-15 11:09:35.552,BlockTimeStatus,233,23,Female,-,1,-,-,-,-,-,-,-,-,-,-,-,-,-,-,-,-,-,-,-,-,-,-,-,-,-,-,-,-,163.77,136.23,17,7.49,-,-,-,-,-,-,-,-,-,-,-,-,-,-,-,-,-,-,-,-,-,-,-,-,-
2025-05-15 11:09:36.993,MovementDuration,233,23,Female,-,-,-,19,-,-,-,-,Failure,-,-,-,-,0.000,-,-,-,-,-,-,-,-,-,-,-,-,-,-,-,-,-,-,-,-,-,-,-,-,-,-,-,-,-,-,-,-,-,-,-,-,-,-,-,-,-,-,-,-,-
2025-05-15 11:09:36.993,OutcomeType,233,23,Female,-,-,-,19,-,-,-,-,Failure,-,-,-,-,-,-,-,-,-,-,-,-,-,-,-,-,-,-,-,-,-,-,-,-,-,-,-,-,-,-,-,-,-,-,-,-,-,-,-,-,-,-,-,-,-,-,-,-,-,-
2025-05-15 11:09:36.994,RewardCollected,233,23,Female,-,-,-,19,-,-,-,-,-,-,-,-,-,-,-,-,-,-,-,-,-,-,-,-,-,-,-,-,-,-,-,-,-,-,-,-,-,-,-,-,-,-,-,-,-,-,-,-,-,-,-,-,-,-,-,-,-,-,-
2025-05-15 11:09:36.994,ButtonPresses,233,23,Female,-,-,-,19,-,-,-,-,-,-,-,-,-,-,-,-,-,-,-,-,-,-,-,0,-,-,-,-,-,-,-,-,-,-,-,-,-,-,-,-,-,-,-,-,-,-,-,-,-,-,-,-,-,-,-,-,-,-,-
2025-05-15 11:09:36.997,DecisionOutcome,233,23,Female,False,1,HighLowRatio,19,1,1,Work,0.703,Failure,False,0,20,0,0.000,-,-,-,-,-,-,-,-,-,0,-,-1.000,False,0.1,-,-,162.33,137.67,17,7.41,-,-,-,-,-,-,-,-,-,-,-,-,-,-,-,-,-,-,-,-,-,-,-,-,-
2025-05-15 11:09:36.997,ButtonPresses,233,23,Female,-,-,-,19,-,-,-,-,-,-,-,-,-,-,-,-,-,-,-,-,-,-,-,0,-,-,-,-,-,-,-,-,-,-,-,-,-,-,-,-,-,-,-,-,-,-,-,-,-,-,-,-,-,-,-,-,-,-,-
2025-05-15 11:09:36.998,MovementComplete,233,23,Female,-,-,-,19,-,-,-,-,-,False,-,-,-,-,-,-,-,-,-,-,-,-,-,-,-,-,-,-,-,-,-,-,-,-,-,-,-,-,-,-,-,-,-,-,-,-,-,-,-,-,-,-,-,-,-,-,-,-,-
2025-05-15 11:09:36.998,RewardCollected,233,23,Female,-,-,-,19,-,-,-,-,-,-,-,-,-,-,-,-,-,-,-,-,-,-,-,-,-,-,-,-,-,-,-,-,-,-,-,-,-,-,-,-,-,-,-,-,-,-,-,-,-,-,-,-,-,-,-,-,-,-,-
2025-05-15 11:09:37.094,BlockTimeStatus,233,23,Female,-,1,-,-,-,-,-,-,-,-,-,-,-,-,-,-,-,-,-,-,-,-,-,-,-,-,-,-,-,-,162.23,137.77,18,7.84,-,-,-,-,-,-,-,-,-,-,-,-,-,-,-,-,-,-,-,-,-,-,-,-,-
2025-05-15 11:09:37.107,TrialStart,233,23,Female,-,1,-,20,-,-,-,-,-,-,-,-,-,-,-,-,-,-,-,-,-,-,-,-,-,-,-,-,-,-,-,-,-,-,-,-,-,-,-,-,-,-,-,-,-,-,-,-,-,-,-,-,-,-,-,-,-,-,-
2025-05-15 11:09:37.297,InfoMessage,233,23,Female,-,-,-,-,-,-,-,-,-,-,-,-,-,-,-,-,-,-,-,-,-,-,-,-,-,-,-,-,-,-,-,-,-,-,-,-,-,-,-,-,-,-,-,-,-,-,-,-,-,-,-,-,-,-,-,-,-,-,-
2025-05-15 11:09:37.298,TrialStart,233,23,Female,-,1,-,20,-,-,-,-,-,-,-,-,-,-,-,-,-,-,-,-,-,-,-,-,-,-,-,-,-,-,-,-,-,-,-,-,-,-,-,-,-,-,-,-,-,-,-,-,-,-,-,-,-,-,-,-,-,-,-
2025-05-15 11:09:37.481,InfoMessage,233,23,Female,-,-,-,-,-,-,-,-,-,-,-,-,-,-,-,-,-,-,-,-,-,-,-,-,-,-,-,-,-,-,-,-,-,-,-,-,-,-,-,-,-,-,-,-,-,-,-,-,-,-,-,-,-,-,-,-,-,-,-
2025-05-15 11:09:38.691,InfoMessage,233,23,Female,-,-,-,-,-,-,-,-,-,-,-,-,-,-,-,-,-,-,-,-,-,-,-,-,-,-,-,-,-,-,-,-,-,-,-,-,-,-,-,-,-,-,-,-,-,-,-,-,-,-,-,-,-,-,-,-,-,-,-
2025-05-15 11:09:43.880,MovementDuration,233,23,Female,-,-,-,20,-,-,-,-,Failure,-,-,-,-,0.000,-,-,-,-,-,-,-,-,-,-,-,-,-,-,-,-,-,-,-,-,-,-,-,-,-,-,-,-,-,-,-,-,-,-,-,-,-,-,-,-,-,-,-,-,-
2025-05-15 11:09:43.881,OutcomeType,233,23,Female,-,-,-,20,-,-,-,-,Failure,-,-,-,-,-,-,-,-,-,-,-,-,-,-,-,-,-,-,-,-,-,-,-,-,-,-,-,-,-,-,-,-,-,-,-,-,-,-,-,-,-,-,-,-,-,-,-,-,-,-
2025-05-15 11:09:43.881,RewardCollected,233,23,Female,-,-,-,20,-,-,-,-,-,-,-,-,-,-,-,-,-,-,-,-,-,-,-,-,-,-,-,-,-,-,-,-,-,-,-,-,-,-,-,-,-,-,-,-,-,-,-,-,-,-,-,-,-,-,-,-,-,-,-
2025-05-15 11:09:43.882,ButtonPresses,233,23,Female,-,-,-,20,-,-,-,-,-,-,-,-,-,-,-,-,-,-,-,-,-,-,-,0,-,-,-,-,-,-,-,-,-,-,-,-,-,-,-,-,-,-,-,-,-,-,-,-,-,-,-,-,-,-,-,-,-,-,-
2025-05-15 11:09:43.884,DecisionOutcome,233,23,Female,False,1,HighLowRatio,20,2,2,Work,0.921,Failure,False,0,20,0,0.000,-,-,-,-,-,-,-,-,-,0,-,-1.000,False,0.1,-,-,155.47,144.53,18,7.47,-,-,-,-,-,-,-,-,-,-,-,-,-,-,-,-,-,-,-,-,-,-,-,-,-
2025-05-15 11:09:43.884,ButtonPresses,233,23,Female,-,-,-,20,-,-,-,-,-,-,-,-,-,-,-,-,-,-,-,-,-,-,-,0,-,-,-,-,-,-,-,-,-,-,-,-,-,-,-,-,-,-,-,-,-,-,-,-,-,-,-,-,-,-,-,-,-,-,-
2025-05-15 11:09:43.885,MovementComplete,233,23,Female,-,-,-,20,-,-,-,-,-,False,-,-,-,-,-,-,-,-,-,-,-,-,-,-,-,-,-,-,-,-,-,-,-,-,-,-,-,-,-,-,-,-,-,-,-,-,-,-,-,-,-,-,-,-,-,-,-,-,-
2025-05-15 11:09:43.885,RewardCollected,233,23,Female,-,-,-,20,-,-,-,-,-,-,-,-,-,-,-,-,-,-,-,-,-,-,-,-,-,-,-,-,-,-,-,-,-,-,-,-,-,-,-,-,-,-,-,-,-,-,-,-,-,-,-,-,-,-,-,-,-,-,-
2025-05-15 11:09:43.981,BlockTimeStatus,233,23,Female,-,1,-,-,-,-,-,-,-,-,-,-,-,-,-,-,-,-,-,-,-,-,-,-,-,-,-,-,-,-,155.37,144.63,19,7.88,-,-,-,-,-,-,-,-,-,-,-,-,-,-,-,-,-,-,-,-,-,-,-,-,-
2025-05-15 11:09:43.993,TrialStart,233,23,Female,-,1,-,21,-,-,-,-,-,-,-,-,-,-,-,-,-,-,-,-,-,-,-,-,-,-,-,-,-,-,-,-,-,-,-,-,-,-,-,-,-,-,-,-,-,-,-,-,-,-,-,-,-,-,-,-,-,-,-
2025-05-15 11:09:44.178,InfoMessage,233,23,Female,-,-,-,-,-,-,-,-,-,-,-,-,-,-,-,-,-,-,-,-,-,-,-,-,-,-,-,-,-,-,-,-,-,-,-,-,-,-,-,-,-,-,-,-,-,-,-,-,-,-,-,-,-,-,-,-,-,-,-
2025-05-15 11:09:44.179,TrialStart,233,23,Female,-,1,-,21,-,-,-,-,-,-,-,-,-,-,-,-,-,-,-,-,-,-,-,-,-,-,-,-,-,-,-,-,-,-,-,-,-,-,-,-,-,-,-,-,-,-,-,-,-,-,-,-,-,-,-,-,-,-,-
2025-05-15 11:09:44.365,InfoMessage,233,23,Female,-,-,-,-,-,-,-,-,-,-,-,-,-,-,-,-,-,-,-,-,-,-,-,-,-,-,-,-,-,-,-,-,-,-,-,-,-,-,-,-,-,-,-,-,-,-,-,-,-,-,-,-,-,-,-,-,-,-,-
2025-05-15 11:09:45.306,InfoMessage,233,23,Female,-,-,-,-,-,-,-,-,-,-,-,-,-,-,-,-,-,-,-,-,-,-,-,-,-,-,-,-,-,-,-,-,-,-,-,-,-,-,-,-,-,-,-,-,-,-,-,-,-,-,-,-,-,-,-,-,-,-,-
2025-05-15 11:09:45.552,BlockTimeStatus,233,23,Female,-,1,-,-,-,-,-,-,-,-,-,-,-,-,-,-,-,-,-,-,-,-,-,-,-,-,-,-,-,-,153.82,146.18,19,7.80,-,-,-,-,-,-,-,-,-,-,-,-,-,-,-,-,-,-,-,-,-,-,-,-,-
2025-05-15 11:09:50.495,MovementDuration,233,23,Female,-,-,-,21,-,-,-,-,Failure,-,-,-,-,0.000,-,-,-,-,-,-,-,-,-,-,-,-,-,-,-,-,-,-,-,-,-,-,-,-,-,-,-,-,-,-,-,-,-,-,-,-,-,-,-,-,-,-,-,-,-
2025-05-15 11:09:50.495,OutcomeType,233,23,Female,-,-,-,21,-,-,-,-,Failure,-,-,-,-,-,-,-,-,-,-,-,-,-,-,-,-,-,-,-,-,-,-,-,-,-,-,-,-,-,-,-,-,-,-,-,-,-,-,-,-,-,-,-,-,-,-,-,-,-,-
2025-05-15 11:09:50.496,RewardCollected,233,23,Female,-,-,-,21,-,-,-,-,-,-,-,-,-,-,-,-,-,-,-,-,-,-,-,-,-,-,-,-,-,-,-,-,-,-,-,-,-,-,-,-,-,-,-,-,-,-,-,-,-,-,-,-,-,-,-,-,-,-,-
2025-05-15 11:09:50.496,ButtonPresses,233,23,Female,-,-,-,21,-,-,-,-,-,-,-,-,-,-,-,-,-,-,-,-,-,-,-,0,-,-,-,-,-,-,-,-,-,-,-,-,-,-,-,-,-,-,-,-,-,-,-,-,-,-,-,-,-,-,-,-,-,-,-
2025-05-15 11:09:50.499,DecisionOutcome,233,23,Female,False,1,HighLowRatio,21,3,3,Work,0.629,Failure,False,0,20,0,0.000,-,-,-,-,-,-,-,-,-,0,-,-1.000,False,0.1,-,-,148.88,151.12,19,7.54,-,-,-,-,-,-,-,-,-,-,-,-,-,-,-,-,-,-,-,-,-,-,-,-,-
2025-05-15 11:09:50.500,ButtonPresses,233,23,Female,-,-,-,21,-,-,-,-,-,-,-,-,-,-,-,-,-,-,-,-,-,-,-,0,-,-,-,-,-,-,-,-,-,-,-,-,-,-,-,-,-,-,-,-,-,-,-,-,-,-,-,-,-,-,-,-,-,-,-
2025-05-15 11:09:50.500,MovementComplete,233,23,Female,-,-,-,21,-,-,-,-,-,False,-,-,-,-,-,-,-,-,-,-,-,-,-,-,-,-,-,-,-,-,-,-,-,-,-,-,-,-,-,-,-,-,-,-,-,-,-,-,-,-,-,-,-,-,-,-,-,-,-
2025-05-15 11:09:50.501,RewardCollected,233,23,Female,-,-,-,21,-,-,-,-,-,-,-,-,-,-,-,-,-,-,-,-,-,-,-,-,-,-,-,-,-,-,-,-,-,-,-,-,-,-,-,-,-,-,-,-,-,-,-,-,-,-,-,-,-,-,-,-,-,-,-
2025-05-15 11:09:50.597,BlockTimeStatus,233,23,Female,-,1,-,-,-,-,-,-,-,-,-,-,-,-,-,-,-,-,-,-,-,-,-,-,-,-,-,-,-,-,148.78,151.22,20,7.94,-,-,-,-,-,-,-,-,-,-,-,-,-,-,-,-,-,-,-,-,-,-,-,-,-
2025-05-15 11:09:50.612,TrialStart,233,23,Female,-,1,-,22,-,-,-,-,-,-,-,-,-,-,-,-,-,-,-,-,-,-,-,-,-,-,-,-,-,-,-,-,-,-,-,-,-,-,-,-,-,-,-,-,-,-,-,-,-,-,-,-,-,-,-,-,-,-,-
2025-05-15 11:09:50.891,InfoMessage,233,23,Female,-,-,-,-,-,-,-,-,-,-,-,-,-,-,-,-,-,-,-,-,-,-,-,-,-,-,-,-,-,-,-,-,-,-,-,-,-,-,-,-,-,-,-,-,-,-,-,-,-,-,-,-,-,-,-,-,-,-,-
2025-05-15 11:09:50.893,TrialStart,233,23,Female,-,1,-,22,-,-,-,-,-,-,-,-,-,-,-,-,-,-,-,-,-,-,-,-,-,-,-,-,-,-,-,-,-,-,-,-,-,-,-,-,-,-,-,-,-,-,-,-,-,-,-,-,-,-,-,-,-,-,-
2025-05-15 11:09:51.070,InfoMessage,233,23,Female,-,-,-,-,-,-,-,-,-,-,-,-,-,-,-,-,-,-,-,-,-,-,-,-,-,-,-,-,-,-,-,-,-,-,-,-,-,-,-,-,-,-,-,-,-,-,-,-,-,-,-,-,-,-,-,-,-,-,-
2025-05-15 11:09:53.535,ScoreUpdate,233,23,Female,False,1,-,22,-,-,-,-,-,-,0,20,0,-,-,-,-,-,-,-,-,-,-,-,-,-,-,-,-,-,-,-,-,-,-,-,-,-,-,-,-,-,-,-,-,-,-,-,-,-,-,-,-,-,-,-,-,-,-
2025-05-15 11:09:53.537,DecisionOutcome,233,23,Female,False,1,HighLowRatio,22,1,1,NoDecision,2.500,Timeout,False,0,20,0,0.000,-,-,-,-,-,-,-,-,-,0,-,-1.000,False,0.1,-,-,145.86,154.14,20,7.79,-,-,-,-,-,-,-,-,-,-,-,-,-,-,-,-,-,-,-,-,-,-,-,-,-
2025-05-15 11:09:53.538,PenaltyStart,233,23,Female,-,-,-,22,-,-,-,-,-,-,-,-,-,-,-,-,-,-,-,-,-,-,-,-,-,-,-,-,NoDecision,5,-,-,-,-,-,-,-,-,-,-,-,-,-,-,-,-,-,-,-,-,-,-,-,-,-,-,-,-,-
2025-05-15 11:09:55.552,BlockTimeStatus,233,23,Female,-,1,-,-,-,-,-,-,-,-,-,-,-,-,-,-,-,-,-,-,-,-,-,-,-,-,-,-,-,-,143.85,156.15,20,7.69,-,-,-,-,-,-,-,-,-,-,-,-,-,-,-,-,-,-,-,-,-,-,-,-,-
2025-05-15 11:09:58.804,BlockTimeStatus,233,23,Female,-,1,-,-,-,-,-,-,-,-,-,-,-,-,-,-,-,-,-,-,-,-,-,-,-,-,-,-,-,-,140.60,159.40,21,7.90,-,-,-,-,-,-,-,-,-,-,-,-,-,-,-,-,-,-,-,-,-,-,-,-,-
2025-05-15 11:09:58.820,TrialStart,233,23,Female,-,1,-,23,-,-,-,-,-,-,-,-,-,-,-,-,-,-,-,-,-,-,-,-,-,-,-,-,-,-,-,-,-,-,-,-,-,-,-,-,-,-,-,-,-,-,-,-,-,-,-,-,-,-,-,-,-,-,-
2025-05-15 11:09:59.009,InfoMessage,233,23,Female,-,-,-,-,-,-,-,-,-,-,-,-,-,-,-,-,-,-,-,-,-,-,-,-,-,-,-,-,-,-,-,-,-,-,-,-,-,-,-,-,-,-,-,-,-,-,-,-,-,-,-,-,-,-,-,-,-,-,-
2025-05-15 11:10:00.276,InfoMessage,233,23,Female,-,-,-,-,-,-,-,-,-,-,-,-,-,-,-,-,-,-,-,-,-,-,-,-,-,-,-,-,-,-,-,-,-,-,-,-,-,-,-,-,-,-,-,-,-,-,-,-,-,-,-,-,-,-,-,-,-,-,-
2025-05-15 11:10:05.465,MovementDuration,233,23,Female,-,-,-,23,-,-,-,-,Failure,-,-,-,-,0.000,-,-,-,-,-,-,-,-,-,-,-,-,-,-,-,-,-,-,-,-,-,-,-,-,-,-,-,-,-,-,-,-,-,-,-,-,-,-,-,-,-,-,-,-,-
2025-05-15 11:10:05.466,OutcomeType,233,23,Female,-,-,-,23,-,-,-,-,Failure,-,-,-,-,-,-,-,-,-,-,-,-,-,-,-,-,-,-,-,-,-,-,-,-,-,-,-,-,-,-,-,-,-,-,-,-,-,-,-,-,-,-,-,-,-,-,-,-,-,-
2025-05-15 11:10:05.466,RewardCollected,233,23,Female,-,-,-,23,-,-,-,-,-,-,-,-,-,-,-,-,-,-,-,-,-,-,-,-,-,-,-,-,-,-,-,-,-,-,-,-,-,-,-,-,-,-,-,-,-,-,-,-,-,-,-,-,-,-,-,-,-,-,-
2025-05-15 11:10:05.466,ButtonPresses,233,23,Female,-,-,-,23,-,-,-,-,-,-,-,-,-,-,-,-,-,-,-,-,-,-,-,0,-,-,-,-,-,-,-,-,-,-,-,-,-,-,-,-,-,-,-,-,-,-,-,-,-,-,-,-,-,-,-,-,-,-,-
2025-05-15 11:10:05.469,DecisionOutcome,233,23,Female,False,1,HighLowRatio,23,2,2,Work,0.973,Failure,False,0,20,0,0.000,-,-,-,-,-,-,-,-,-,0,-,-1.000,False,0.1,-,-,133.96,166.04,21,7.59,-,-,-,-,-,-,-,-,-,-,-,-,-,-,-,-,-,-,-,-,-,-,-,-,-
2025-05-15 11:10:05.469,ButtonPresses,233,23,Female,-,-,-,23,-,-,-,-,-,-,-,-,-,-,-,-,-,-,-,-,-,-,-,0,-,-,-,-,-,-,-,-,-,-,-,-,-,-,-,-,-,-,-,-,-,-,-,-,-,-,-,-,-,-,-,-,-,-,-
2025-05-15 11:10:05.470,MovementComplete,233,23,Female,-,-,-,23,-,-,-,-,-,False,-,-,-,-,-,-,-,-,-,-,-,-,-,-,-,-,-,-,-,-,-,-,-,-,-,-,-,-,-,-,-,-,-,-,-,-,-,-,-,-,-,-,-,-,-,-,-,-,-
2025-05-15 11:10:05.470,RewardCollected,233,23,Female,-,-,-,23,-,-,-,-,-,-,-,-,-,-,-,-,-,-,-,-,-,-,-,-,-,-,-,-,-,-,-,-,-,-,-,-,-,-,-,-,-,-,-,-,-,-,-,-,-,-,-,-,-,-,-,-,-,-,-
2025-05-15 11:10:05.552,BlockTimeStatus,233,23,Female,-,1,-,-,-,-,-,-,-,-,-,-,-,-,-,-,-,-,-,-,-,-,-,-,-,-,-,-,-,-,133.87,166.13,21,7.58,-,-,-,-,-,-,-,-,-,-,-,-,-,-,-,-,-,-,-,-,-,-,-,-,-
2025-05-15 11:10:05.565,BlockTimeStatus,233,23,Female,-,1,-,-,-,-,-,-,-,-,-,-,-,-,-,-,-,-,-,-,-,-,-,-,-,-,-,-,-,-,133.86,166.14,22,7.94,-,-,-,-,-,-,-,-,-,-,-,-,-,-,-,-,-,-,-,-,-,-,-,-,-
2025-05-15 11:10:05.579,TrialStart,233,23,Female,-,1,-,24,-,-,-,-,-,-,-,-,-,-,-,-,-,-,-,-,-,-,-,-,-,-,-,-,-,-,-,-,-,-,-,-,-,-,-,-,-,-,-,-,-,-,-,-,-,-,-,-,-,-,-,-,-,-,-
2025-05-15 11:10:05.766,InfoMessage,233,23,Female,-,-,-,-,-,-,-,-,-,-,-,-,-,-,-,-,-,-,-,-,-,-,-,-,-,-,-,-,-,-,-,-,-,-,-,-,-,-,-,-,-,-,-,-,-,-,-,-,-,-,-,-,-,-,-,-,-,-,-
2025-05-15 11:10:05.768,TrialStart,233,23,Female,-,1,-,24,-,-,-,-,-,-,-,-,-,-,-,-,-,-,-,-,-,-,-,-,-,-,-,-,-,-,-,-,-,-,-,-,-,-,-,-,-,-,-,-,-,-,-,-,-,-,-,-,-,-,-,-,-,-,-
2025-05-15 11:10:05.945,InfoMessage,233,23,Female,-,-,-,-,-,-,-,-,-,-,-,-,-,-,-,-,-,-,-,-,-,-,-,-,-,-,-,-,-,-,-,-,-,-,-,-,-,-,-,-,-,-,-,-,-,-,-,-,-,-,-,-,-,-,-,-,-,-,-
2025-05-15 11:10:08.411,ScoreUpdate,233,23,Female,False,1,-,24,-,-,-,-,-,-,0,20,0,-,-,-,-,-,-,-,-,-,-,-,-,-,-,-,-,-,-,-,-,-,-,-,-,-,-,-,-,-,-,-,-,-,-,-,-,-,-,-,-,-,-,-,-,-,-
2025-05-15 11:10:08.414,DecisionOutcome,233,23,Female,False,1,HighLowRatio,24,1,1,NoDecision,2.500,Timeout,False,0,20,0,0.000,-,-,-,-,-,-,-,-,-,0,-,-1.000,False,0.1,-,-,131.04,168.96,22,7.81,-,-,-,-,-,-,-,-,-,-,-,-,-,-,-,-,-,-,-,-,-,-,-,-,-
2025-05-15 11:10:08.414,PenaltyStart,233,23,Female,-,-,-,24,-,-,-,-,-,-,-,-,-,-,-,-,-,-,-,-,-,-,-,-,-,-,-,-,NoDecision,5,-,-,-,-,-,-,-,-,-,-,-,-,-,-,-,-,-,-,-,-,-,-,-,-,-,-,-,-,-
2025-05-15 11:10:13.679,BlockTimeStatus,233,23,Female,-,1,-,-,-,-,-,-,-,-,-,-,-,-,-,-,-,-,-,-,-,-,-,-,-,-,-,-,-,-,125.78,174.22,23,7.92,-,-,-,-,-,-,-,-,-,-,-,-,-,-,-,-,-,-,-,-,-,-,-,-,-
2025-05-15 11:10:13.689,TrialStart,233,23,Female,-,1,-,25,-,-,-,-,-,-,-,-,-,-,-,-,-,-,-,-,-,-,-,-,-,-,-,-,-,-,-,-,-,-,-,-,-,-,-,-,-,-,-,-,-,-,-,-,-,-,-,-,-,-,-,-,-,-,-
2025-05-15 11:10:13.873,InfoMessage,233,23,Female,-,-,-,-,-,-,-,-,-,-,-,-,-,-,-,-,-,-,-,-,-,-,-,-,-,-,-,-,-,-,-,-,-,-,-,-,-,-,-,-,-,-,-,-,-,-,-,-,-,-,-,-,-,-,-,-,-,-,-
2025-05-15 11:10:14.883,InfoMessage,233,23,Female,-,-,-,-,-,-,-,-,-,-,-,-,-,-,-,-,-,-,-,-,-,-,-,-,-,-,-,-,-,-,-,-,-,-,-,-,-,-,-,-,-,-,-,-,-,-,-,-,-,-,-,-,-,-,-,-,-,-,-
2025-05-15 11:10:15.552,BlockTimeStatus,233,23,Female,-,1,-,-,-,-,-,-,-,-,-,-,-,-,-,-,-,-,-,-,-,-,-,-,-,-,-,-,-,-,123.92,176.08,23,7.84,-,-,-,-,-,-,-,-,-,-,-,-,-,-,-,-,-,-,-,-,-,-,-,-,-
2025-05-15 11:10:20.072,MovementDuration,233,23,Female,-,-,-,25,-,-,-,-,Failure,-,-,-,-,0.000,-,-,-,-,-,-,-,-,-,-,-,-,-,-,-,-,-,-,-,-,-,-,-,-,-,-,-,-,-,-,-,-,-,-,-,-,-,-,-,-,-,-,-,-,-
2025-05-15 11:10:20.073,OutcomeType,233,23,Female,-,-,-,25,-,-,-,-,Failure,-,-,-,-,-,-,-,-,-,-,-,-,-,-,-,-,-,-,-,-,-,-,-,-,-,-,-,-,-,-,-,-,-,-,-,-,-,-,-,-,-,-,-,-,-,-,-,-,-,-
2025-05-15 11:10:20.073,RewardCollected,233,23,Female,-,-,-,25,-,-,-,-,-,-,-,-,-,-,-,-,-,-,-,-,-,-,-,-,-,-,-,-,-,-,-,-,-,-,-,-,-,-,-,-,-,-,-,-,-,-,-,-,-,-,-,-,-,-,-,-,-,-,-
2025-05-15 11:10:20.073,ButtonPresses,233,23,Female,-,-,-,25,-,-,-,-,-,-,-,-,-,-,-,-,-,-,-,-,-,-,-,0,-,-,-,-,-,-,-,-,-,-,-,-,-,-,-,-,-,-,-,-,-,-,-,-,-,-,-,-,-,-,-,-,-,-,-
2025-05-15 11:10:20.076,DecisionOutcome,233,23,Female,False,1,HighLowRatio,25,1,1,Work,0.716,Failure,False,0,20,0,0.000,-,-,-,-,-,-,-,-,-,0,-,-1.000,False,0.1,-,-,119.40,180.60,23,7.64,-,-,-,-,-,-,-,-,-,-,-,-,-,-,-,-,-,-,-,-,-,-,-,-,-
2025-05-15 11:10:20.076,ButtonPresses,233,23,Female,-,-,-,25,-,-,-,-,-,-,-,-,-,-,-,-,-,-,-,-,-,-,-,0,-,-,-,-,-,-,-,-,-,-,-,-,-,-,-,-,-,-,-,-,-,-,-,-,-,-,-,-,-,-,-,-,-,-,-
2025-05-15 11:10:20.077,MovementComplete,233,23,Female,-,-,-,25,-,-,-,-,-,False,-,-,-,-,-,-,-,-,-,-,-,-,-,-,-,-,-,-,-,-,-,-,-,-,-,-,-,-,-,-,-,-,-,-,-,-,-,-,-,-,-,-,-,-,-,-,-,-,-
2025-05-15 11:10:20.077,RewardCollected,233,23,Female,-,-,-,25,-,-,-,-,-,-,-,-,-,-,-,-,-,-,-,-,-,-,-,-,-,-,-,-,-,-,-,-,-,-,-,-,-,-,-,-,-,-,-,-,-,-,-,-,-,-,-,-,-,-,-,-,-,-,-
2025-05-15 11:10:20.173,BlockTimeStatus,233,23,Female,-,1,-,-,-,-,-,-,-,-,-,-,-,-,-,-,-,-,-,-,-,-,-,-,-,-,-,-,-,-,119.30,180.70,24,7.97,-,-,-,-,-,-,-,-,-,-,-,-,-,-,-,-,-,-,-,-,-,-,-,-,-
2025-05-15 11:10:20.186,TrialStart,233,23,Female,-,1,-,26,-,-,-,-,-,-,-,-,-,-,-,-,-,-,-,-,-,-,-,-,-,-,-,-,-,-,-,-,-,-,-,-,-,-,-,-,-,-,-,-,-,-,-,-,-,-,-,-,-,-,-,-,-,-,-
2025-05-15 11:10:20.371,InfoMessage,233,23,Female,-,-,-,-,-,-,-,-,-,-,-,-,-,-,-,-,-,-,-,-,-,-,-,-,-,-,-,-,-,-,-,-,-,-,-,-,-,-,-,-,-,-,-,-,-,-,-,-,-,-,-,-,-,-,-,-,-,-,-
2025-05-15 11:10:20.372,TrialStart,233,23,Female,-,1,-,26,-,-,-,-,-,-,-,-,-,-,-,-,-,-,-,-,-,-,-,-,-,-,-,-,-,-,-,-,-,-,-,-,-,-,-,-,-,-,-,-,-,-,-,-,-,-,-,-,-,-,-,-,-,-,-
2025-05-15 11:10:20.551,InfoMessage,233,23,Female,-,-,-,-,-,-,-,-,-,-,-,-,-,-,-,-,-,-,-,-,-,-,-,-,-,-,-,-,-,-,-,-,-,-,-,-,-,-,-,-,-,-,-,-,-,-,-,-,-,-,-,-,-,-,-,-,-,-,-
2025-05-15 11:10:21.168,InfoMessage,233,23,Female,-,-,-,-,-,-,-,-,-,-,-,-,-,-,-,-,-,-,-,-,-,-,-,-,-,-,-,-,-,-,-,-,-,-,-,-,-,-,-,-,-,-,-,-,-,-,-,-,-,-,-,-,-,-,-,-,-,-,-
2025-05-15 11:10:25.552,BlockTimeStatus,233,23,Female,-,1,-,-,-,-,-,-,-,-,-,-,-,-,-,-,-,-,-,-,-,-,-,-,-,-,-,-,-,-,113.94,186.06,24,7.74,-,-,-,-,-,-,-,-,-,-,-,-,-,-,-,-,-,-,-,-,-,-,-,-,-
2025-05-15 11:10:26.357,MovementDuration,233,23,Female,-,-,-,26,-,-,-,-,Failure,-,-,-,-,0.000,-,-,-,-,-,-,-,-,-,-,-,-,-,-,-,-,-,-,-,-,-,-,-,-,-,-,-,-,-,-,-,-,-,-,-,-,-,-,-,-,-,-,-,-,-
2025-05-15 11:10:26.358,OutcomeType,233,23,Female,-,-,-,26,-,-,-,-,Failure,-,-,-,-,-,-,-,-,-,-,-,-,-,-,-,-,-,-,-,-,-,-,-,-,-,-,-,-,-,-,-,-,-,-,-,-,-,-,-,-,-,-,-,-,-,-,-,-,-,-
2025-05-15 11:10:26.358,RewardCollected,233,23,Female,-,-,-,26,-,-,-,-,-,-,-,-,-,-,-,-,-,-,-,-,-,-,-,-,-,-,-,-,-,-,-,-,-,-,-,-,-,-,-,-,-,-,-,-,-,-,-,-,-,-,-,-,-,-,-,-,-,-,-
2025-05-15 11:10:26.359,ButtonPresses,233,23,Female,-,-,-,26,-,-,-,-,-,-,-,-,-,-,-,-,-,-,-,-,-,-,-,0,-,-,-,-,-,-,-,-,-,-,-,-,-,-,-,-,-,-,-,-,-,-,-,-,-,-,-,-,-,-,-,-,-,-,-
2025-05-15 11:10:26.361,DecisionOutcome,233,23,Female,False,1,HighLowRatio,26,2,2,Work,0.326,Failure,False,0,20,0,0.000,-,-,-,-,-,-,-,-,-,0,-,-1.000,False,0.1,-,-,113.14,186.86,24,7.71,-,-,-,-,-,-,-,-,-,-,-,-,-,-,-,-,-,-,-,-,-,-,-,-,-
2025-05-15 11:10:26.362,ButtonPresses,233,23,Female,-,-,-,26,-,-,-,-,-,-,-,-,-,-,-,-,-,-,-,-,-,-,-,0,-,-,-,-,-,-,-,-,-,-,-,-,-,-,-,-,-,-,-,-,-,-,-,-,-,-,-,-,-,-,-,-,-,-,-
