Timestamp,EventType,ParticipantID,ParticipantAge,ParticipantGender,IsPractice,BlockNumber,BlockType,TrialNumber,EffortLevel,RequiredPresses,DecisionType,ReactionTime,OutcomeType,RewardCollected,Points,TotalScore,PracticeScore,MovementDuration,StepStartTime,StepEndTime,StepDuration,StepSuccessful,StepPressesRequired,StartX,StartY,EndX,EndY,TotalPresses,PressData,TimePerPress,IsRushing,RushingThreshold,PenaltyType,PenaltyDuration,RemainingTime,ElapsedTime,CompletedTrials,TrialRate,CalibrationEasy,CalibrationMedium,CalibrationHard,CalibrationPhase1Rate,CalibrationPhase2Rate,CalibrationPhase3Rate,CalibrationMaxRate,CheckPhase,QuestionNumber,QuestionType,QuestionText,SelectedAnswer,CorrectAnswer,IsCorrect,ResponseTime,Check1Score,Check2Score,ComprehensionScore,TotalCheckScore,FailedAttempts,TirednessRating,ParticipantFeedback,ContinueButtonClicked,ButtonAction,RedirectURL,
2025-05-01 21:39:51.341,TrialStart,Unknown,0,Unknown,-,0,-,1,-,-,-,-,-,-,-,-,-,-,-,-,-,-,-,-,-,-,-,-,-,-,-,-,-,-,-,-,-,-,-,-,-,-,-,-,-,-,-,-,-,-,-,-,-,-,-,-,-,-,-,-,-,-,-
2025-05-01 21:39:57.453,PracticeTrialStart,Unknown,0,Unknown,True,0,-,1,-,-,-,-,-,-,-,-,-,-,-,-,-,-,-,-,-,-,-,-,-,-,-,-,-,-,-,-,-,-,-,-,-,-,-,-,-,-,-,-,-,-,-,-,-,-,-,-,-,-,-,-,-,-,-
2025-05-01 21:39:59.043,MovementStart,Unknown,0,Unknown,-,0,-,1,-,-,-,-,-,-,-,-,-,-,-,-,-,-,-,7.50,-0.50,-,-,-,-,-,-,-,-,-,-,-,-,-,-,-,-,-,-,-,-,-,-,-,-,-,-,-,-,-,-,-,-,-,-,-,-,-,-
2025-05-01 21:39:59.143,MovementStep,Unknown,0,Unknown,-,0,Practice_EqualRatio,1,3,5,-,-,Pending,-,-,-,-,-,13.856,14.615,0.759,True,5,7.50,-0.50,6.50,-0.50,-,-,0.152,False,-,-,-,-,-,-,-,-,-,-,-,-,-,-,-,-,-,-,-,-,-,-,-,-,-,-,-,-,-,-,-,-
2025-05-01 21:39:59.801,MovementStart,Unknown,0,Unknown,-,0,-,1,-,-,-,-,-,-,-,-,-,-,-,-,-,-,-,6.50,-0.50,-,-,-,-,-,-,-,-,-,-,-,-,-,-,-,-,-,-,-,-,-,-,-,-,-,-,-,-,-,-,-,-,-,-,-,-,-,-
2025-05-01 21:39:59.901,MovementStep,Unknown,0,Unknown,-,0,Practice_EqualRatio,1,3,5,-,-,Pending,-,-,-,-,-,14.668,15.374,0.706,True,5,6.50,-0.50,5.50,-0.50,-,-,0.141,False,-,-,-,-,-,-,-,-,-,-,-,-,-,-,-,-,-,-,-,-,-,-,-,-,-,-,-,-,-,-,-,-
2025-05-01 21:40:00.625,MovementStart,Unknown,0,Unknown,-,0,-,1,-,-,-,-,-,-,-,-,-,-,-,-,-,-,-,5.50,-0.50,-,-,-,-,-,-,-,-,-,-,-,-,-,-,-,-,-,-,-,-,-,-,-,-,-,-,-,-,-,-,-,-,-,-,-,-,-,-
2025-05-01 21:40:00.724,MovementStep,Unknown,0,Unknown,-,0,Practice_EqualRatio,1,3,5,-,-,Pending,-,-,-,-,-,15.424,16.197,0.773,True,5,5.50,-0.50,4.50,-0.50,-,-,0.155,False,-,-,-,-,-,-,-,-,-,-,-,-,-,-,-,-,-,-,-,-,-,-,-,-,-,-,-,-,-,-,-,-
2025-05-01 21:40:01.483,MovementStart,Unknown,0,Unknown,-,0,-,1,-,-,-,-,-,-,-,-,-,-,-,-,-,-,-,4.50,-0.50,-,-,-,-,-,-,-,-,-,-,-,-,-,-,-,-,-,-,-,-,-,-,-,-,-,-,-,-,-,-,-,-,-,-,-,-,-,-
2025-05-01 21:40:01.583,MovementStep,Unknown,0,Unknown,-,0,Practice_EqualRatio,1,3,5,-,-,Pending,-,-,-,-,-,16.242,17.055,0.813,True,5,4.51,-0.50,3.50,-0.50,-,-,0.163,False,-,-,-,-,-,-,-,-,-,-,-,-,-,-,-,-,-,-,-,-,-,-,-,-,-,-,-,-,-,-,-,-
2025-05-01 21:40:02.545,MovementDuration,Unknown,0,Unknown,-,-,-,1,-,-,-,-,Failure,-,-,-,-,4.160,-,-,-,-,-,-,-,-,-,-,-,-,-,-,-,-,-,-,-,-,-,-,-,-,-,-,-,-,-,-,-,-,-,-,-,-,-,-,-,-,-,-,-,-,-
2025-05-01 21:40:02.546,OutcomeType,Unknown,0,Unknown,-,-,-,1,-,-,-,-,Failure,-,-,-,-,-,-,-,-,-,-,-,-,-,-,-,-,-,-,-,-,-,-,-,-,-,-,-,-,-,-,-,-,-,-,-,-,-,-,-,-,-,-,-,-,-,-,-,-,-,-
2025-05-01 21:40:02.546,RewardCollected,Unknown,0,Unknown,-,-,-,1,-,-,-,-,-,-,-,-,-,-,-,-,-,-,-,-,-,-,-,-,-,-,-,-,-,-,-,-,-,-,-,-,-,-,-,-,-,-,-,-,-,-,-,-,-,-,-,-,-,-,-,-,-,-,-
2025-05-01 21:40:02.546,ButtonPresses,Unknown,0,Unknown,-,-,-,1,-,-,-,-,-,-,-,-,-,-,-,-,-,-,-,-,-,-,-,22,0.816:left|1.013:left|1.174:left|1.317:left|1.474:left|1.628:left|1.788:left|1.934:left|2.087:left|2.234:left|2.383:left|2.544:left|2.702:left|2.859:left|3.058:left|3.202:left|3.349:left|3.529:left|3.720:left|3.915:left|4.091:left|4.462:left,-,-,-,-,-,-,-,-,-,-,-,-,-,-,-,-,-,-,-,-,-,-,-,-,-,-,-,-,-,-,-,-,-,-
2025-05-01 21:40:02.549,DecisionOutcome,Unknown,0,Unknown,True,0,Practice_EqualRatio,1,3,5,Work,0.452,Failure,False,0,0,0,4.160,-,-,-,-,-,-,-,-,-,22,0.816:left|1.013:left|1.174:left|1.317:left|1.474:left|1.628:left|1.788:left|1.934:left|2.087:left|2.234:left|2.383:left|2.544:left|2.702:left|2.859:left|3.058:left|3.202:left|3.349:left|3.529:left|3.720:left|3.915:left|4.091:left|4.462:left,0.189,False,0.1,-,-,0.00,0.00,0,0,-,-,-,-,-,-,-,-,-,-,-,-,-,-,-,-,-,-,-,-,-,-,-,-,-
2025-05-01 21:40:02.550,ButtonPresses,Unknown,0,Unknown,-,-,-,1,-,-,-,-,-,-,-,-,-,-,-,-,-,-,-,-,-,-,-,22,0.816:left|1.013:left|1.174:left|1.317:left|1.474:left|1.628:left|1.788:left|1.934:left|2.087:left|2.234:left|2.383:left|2.544:left|2.702:left|2.859:left|3.058:left|3.202:left|3.349:left|3.529:left|3.720:left|3.915:left|4.091:left|4.462:left,-,-,-,-,-,-,-,-,-,-,-,-,-,-,-,-,-,-,-,-,-,-,-,-,-,-,-,-,-,-,-,-,-,-
2025-05-01 21:40:02.551,MovementComplete,Unknown,0,Unknown,-,-,-,1,-,-,-,-,-,False,-,-,-,-,-,-,-,-,-,-,-,-,-,-,-,-,-,-,-,-,-,-,-,-,-,-,-,-,-,-,-,-,-,-,-,-,-,-,-,-,-,-,-,-,-,-,-,-,-
2025-05-01 21:40:02.552,RewardCollected,Unknown,0,Unknown,-,-,-,1,-,-,-,-,-,-,-,-,-,-,-,-,-,-,-,-,-,-,-,-,-,-,-,-,-,-,-,-,-,-,-,-,-,-,-,-,-,-,-,-,-,-,-,-,-,-,-,-,-,-,-,-,-,-,-
2025-05-01 21:40:02.762,InfoMessage,Unknown,0,Unknown,-,-,-,-,-,-,-,-,-,-,-,-,-,-,-,-,-,-,-,-,-,-,-,-,-,-,-,-,-,-,-,-,-,-,-,-,-,-,-,-,-,-,-,-,-,-,-,-,-,-,-,-,-,-,-,-,-,-,-
2025-05-01 21:40:06.447,PracticeTrialStart,Unknown,0,Unknown,True,0,-,2,-,-,-,-,-,-,-,-,-,-,-,-,-,-,-,-,-,-,-,-,-,-,-,-,-,-,-,-,-,-,-,-,-,-,-,-,-,-,-,-,-,-,-,-,-,-,-,-,-,-,-,-,-,-,-
2025-05-01 21:40:08.396,MovementStart,Unknown,0,Unknown,-,0,-,2,-,-,-,-,-,-,-,-,-,-,-,-,-,-,-,-0.50,1.50,-,-,-,-,-,-,-,-,-,-,-,-,-,-,-,-,-,-,-,-,-,-,-,-,-,-,-,-,-,-,-,-,-,-,-,-,-,-
2025-05-01 21:40:08.496,MovementStep,Unknown,0,Unknown,-,0,Practice_EqualRatio,2,2,3,-,-,Pending,-,-,-,-,-,22.954,23.395,0.441,True,3,-0.50,1.50,-1.50,1.50,-,-,0.147,False,-,-,-,-,-,-,-,-,-,-,-,-,-,-,-,-,-,-,-,-,-,-,-,-,-,-,-,-,-,-,-,-
2025-05-01 21:40:08.888,MovementStart,Unknown,0,Unknown,-,0,-,2,-,-,-,-,-,-,-,-,-,-,-,-,-,-,-,-1.50,1.50,-,-,-,-,-,-,-,-,-,-,-,-,-,-,-,-,-,-,-,-,-,-,-,-,-,-,-,-,-,-,-,-,-,-,-,-,-,-
2025-05-01 21:40:08.987,MovementStep,Unknown,0,Unknown,-,0,Practice_EqualRatio,2,2,3,-,-,Pending,-,-,-,-,-,23.454,23.886,0.432,True,3,-1.50,1.50,-2.50,1.50,-,-,0.144,False,-,-,-,-,-,-,-,-,-,-,-,-,-,-,-,-,-,-,-,-,-,-,-,-,-,-,-,-,-,-,-,-
2025-05-01 21:40:09.369,MovementStart,Unknown,0,Unknown,-,0,-,2,-,-,-,-,-,-,-,-,-,-,-,-,-,-,-,-2.50,1.50,-,-,-,-,-,-,-,-,-,-,-,-,-,-,-,-,-,-,-,-,-,-,-,-,-,-,-,-,-,-,-,-,-,-,-,-,-,-
2025-05-01 21:40:09.469,MovementStep,Unknown,0,Unknown,-,0,Practice_EqualRatio,2,2,3,-,-,Pending,-,-,-,-,-,23.947,24.368,0.421,True,3,-2.50,1.50,-3.50,1.50,-,-,0.140,False,-,-,-,-,-,-,-,-,-,-,-,-,-,-,-,-,-,-,-,-,-,-,-,-,-,-,-,-,-,-,-,-
2025-05-01 21:40:09.829,MovementStart,Unknown,0,Unknown,-,0,-,2,-,-,-,-,-,-,-,-,-,-,-,-,-,-,-,-3.50,1.50,-,-,-,-,-,-,-,-,-,-,-,-,-,-,-,-,-,-,-,-,-,-,-,-,-,-,-,-,-,-,-,-,-,-,-,-,-,-
2025-05-01 21:40:09.929,MovementStep,Unknown,0,Unknown,-,0,Practice_EqualRatio,2,2,3,-,-,Pending,-,-,-,-,-,24.427,24.828,0.400,True,3,-3.50,1.50,-4.50,1.50,-,-,0.133,False,-,-,-,-,-,-,-,-,-,-,-,-,-,-,-,-,-,-,-,-,-,-,-,-,-,-,-,-,-,-,-,-
2025-05-01 21:40:10.297,MovementStart,Unknown,0,Unknown,-,0,-,2,-,-,-,-,-,-,-,-,-,-,-,-,-,-,-,-4.50,1.50,-,-,-,-,-,-,-,-,-,-,-,-,-,-,-,-,-,-,-,-,-,-,-,-,-,-,-,-,-,-,-,-,-,-,-,-,-,-
2025-05-01 21:40:10.323,ScoreUpdate,Unknown,0,Unknown,True,0,-,2,-,-,-,-,-,-,10,0,10,-,-,-,-,-,-,-,-,-,-,-,-,-,-,-,-,-,-,-,-,-,-,-,-,-,-,-,-,-,-,-,-,-,-,-,-,-,-,-,-,-,-,-,-,-,-
2025-05-01 21:40:10.323,CollisionTime,Unknown,0,Unknown,True,0,-,2,-,-,-,-,-,-,-,-,-,2.266,-,-,-,-,-,-,-,-,-,-,-,-,-,-,-,-,-,-,-,-,-,-,-,-,-,-,-,-,-,-,-,-,-,-,-,-,-,-,-,-,-,-,-,-,-
2025-05-01 21:40:10.324,MovementDuration,Unknown,0,Unknown,-,-,-,2,-,-,-,-,Success,-,-,-,-,2.266,-,-,-,-,-,-,-,-,-,-,-,-,-,-,-,-,-,-,-,-,-,-,-,-,-,-,-,-,-,-,-,-,-,-,-,-,-,-,-,-,-,-,-,-,-
2025-05-01 21:40:10.326,DecisionOutcome,Unknown,0,Unknown,True,0,Practice_EqualRatio,2,2,3,Work,2.195,Success,True,10,0,0,2.266,-,-,-,-,-,-,-,-,-,15,1.501:left|1.695:left|1.843:left|2.001:left|2.155:left|2.334:left|2.494:left|2.656:left|2.815:left|2.975:left|3.125:left|3.275:left|3.425:left|3.572:left|3.744:left,0.151,False,0.1,-,-,0.00,0.00,0,0,-,-,-,-,-,-,-,-,-,-,-,-,-,-,-,-,-,-,-,-,-,-,-,-,-
2025-05-01 21:40:10.326,MovementComplete,Unknown,0,Unknown,-,-,-,2,-,-,-,-,-,True,-,-,-,-,-,-,-,-,-,-,-,-,-,-,-,-,-,-,-,-,-,-,-,-,-,-,-,-,-,-,-,-,-,-,-,-,-,-,-,-,-,-,-,-,-,-,-,-,-
2025-05-01 21:40:10.327,RewardCollected,Unknown,0,Unknown,-,-,-,2,-,-,-,-,-,-,-,-,-,-,-,-,-,-,-,-,-,-,-,-,-,-,-,-,-,-,-,-,-,-,-,-,-,-,-,-,-,-,-,-,-,-,-,-,-,-,-,-,-,-,-,-,-,-,-
2025-05-01 21:40:10.327,OutcomeType,Unknown,0,Unknown,-,-,-,2,-,-,-,-,Success,-,-,-,-,-,-,-,-,-,-,-,-,-,-,-,-,-,-,-,-,-,-,-,-,-,-,-,-,-,-,-,-,-,-,-,-,-,-,-,-,-,-,-,-,-,-,-,-,-,-
2025-05-01 21:40:10.328,RewardCollected,Unknown,0,Unknown,-,-,-,2,-,-,-,-,-,-,-,-,-,-,-,-,-,-,-,-,-,-,-,-,-,-,-,-,-,-,-,-,-,-,-,-,-,-,-,-,-,-,-,-,-,-,-,-,-,-,-,-,-,-,-,-,-,-,-
2025-05-01 21:40:10.328,ButtonPresses,Unknown,0,Unknown,-,-,-,2,-,-,-,-,-,-,-,-,-,-,-,-,-,-,-,-,-,-,-,15,1.501:left|1.695:left|1.843:left|2.001:left|2.155:left|2.334:left|2.494:left|2.656:left|2.815:left|2.975:left|3.125:left|3.275:left|3.425:left|3.572:left|3.744:left,-,-,-,-,-,-,-,-,-,-,-,-,-,-,-,-,-,-,-,-,-,-,-,-,-,-,-,-,-,-,-,-,-,-
2025-05-01 21:40:10.397,MovementStep,Unknown,0,Unknown,-,0,Practice_EqualRatio,2,2,3,-,-,Success,-,-,-,-,-,24.878,25.296,0.419,True,3,-4.50,1.50,-5.50,1.50,-,-,0.140,False,-,-,-,-,-,-,-,-,-,-,-,-,-,-,-,-,-,-,-,-,-,-,-,-,-,-,-,-,-,-,-,-
2025-05-01 21:40:11.747,InfoMessage,Unknown,0,Unknown,-,-,-,-,-,-,-,-,-,-,-,-,-,-,-,-,-,-,-,-,-,-,-,-,-,-,-,-,-,-,-,-,-,-,-,-,-,-,-,-,-,-,-,-,-,-,-,-,-,-,-,-,-,-,-,-,-,-,-
2025-05-01 21:40:14.024,PracticeTrialStart,Unknown,0,Unknown,True,0,-,3,-,-,-,-,-,-,-,-,-,-,-,-,-,-,-,-,-,-,-,-,-,-,-,-,-,-,-,-,-,-,-,-,-,-,-,-,-,-,-,-,-,-,-,-,-,-,-,-,-,-,-,-,-,-,-
2025-05-01 21:40:14.719,MovementStart,Unknown,0,Unknown,-,0,-,3,-,-,-,-,-,-,-,-,-,-,-,-,-,-,-,-6.50,1.50,-,-,-,-,-,-,-,-,-,-,-,-,-,-,-,-,-,-,-,-,-,-,-,-,-,-,-,-,-,-,-,-,-,-,-,-,-,-
2025-05-01 21:40:14.818,MovementStep,Unknown,0,Unknown,-,0,Practice_EqualRatio,3,1,1,-,-,Pending,-,-,-,-,-,29.039,29.139,0.100,True,1,-6.50,1.50,-5.50,1.50,-,-,0.100,True,-,-,-,-,-,-,-,-,-,-,-,-,-,-,-,-,-,-,-,-,-,-,-,-,-,-,-,-,-,-,-,-
2025-05-01 21:40:14.891,MovementStart,Unknown,0,Unknown,-,0,-,3,-,-,-,-,-,-,-,-,-,-,-,-,-,-,-,-5.50,1.50,-,-,-,-,-,-,-,-,-,-,-,-,-,-,-,-,-,-,-,-,-,-,-,-,-,-,-,-,-,-,-,-,-,-,-,-,-,-
2025-05-01 21:40:14.990,MovementStep,Unknown,0,Unknown,-,0,Practice_EqualRatio,3,1,1,-,-,Pending,-,-,-,-,-,29.211,29.311,0.100,True,1,-5.50,1.50,-4.50,1.50,-,-,0.100,True,-,-,-,-,-,-,-,-,-,-,-,-,-,-,-,-,-,-,-,-,-,-,-,-,-,-,-,-,-,-,-,-
2025-05-01 21:40:15.037,MovementStart,Unknown,0,Unknown,-,0,-,3,-,-,-,-,-,-,-,-,-,-,-,-,-,-,-,-4.50,1.50,-,-,-,-,-,-,-,-,-,-,-,-,-,-,-,-,-,-,-,-,-,-,-,-,-,-,-,-,-,-,-,-,-,-,-,-,-,-
2025-05-01 21:40:15.135,MovementStep,Unknown,0,Unknown,-,0,Practice_EqualRatio,3,1,1,-,-,Pending,-,-,-,-,-,29.358,29.456,0.098,True,1,-4.50,1.50,-3.50,1.50,-,-,0.098,True,-,-,-,-,-,-,-,-,-,-,-,-,-,-,-,-,-,-,-,-,-,-,-,-,-,-,-,-,-,-,-,-
2025-05-01 21:40:15.175,MovementStart,Unknown,0,Unknown,-,0,-,3,-,-,-,-,-,-,-,-,-,-,-,-,-,-,-,-3.50,1.50,-,-,-,-,-,-,-,-,-,-,-,-,-,-,-,-,-,-,-,-,-,-,-,-,-,-,-,-,-,-,-,-,-,-,-,-,-,-
2025-05-01 21:40:15.275,MovementStep,Unknown,0,Unknown,-,0,Practice_EqualRatio,3,1,1,-,-,Pending,-,-,-,-,-,29.496,29.596,0.100,True,1,-3.50,1.50,-2.50,1.50,-,-,0.100,True,-,-,-,-,-,-,-,-,-,-,-,-,-,-,-,-,-,-,-,-,-,-,-,-,-,-,-,-,-,-,-,-
2025-05-01 21:40:15.329,MovementStart,Unknown,0,Unknown,-,0,-,3,-,-,-,-,-,-,-,-,-,-,-,-,-,-,-,-2.50,1.50,-,-,-,-,-,-,-,-,-,-,-,-,-,-,-,-,-,-,-,-,-,-,-,-,-,-,-,-,-,-,-,-,-,-,-,-,-,-
2025-05-01 21:40:15.341,ScoreUpdate,Unknown,0,Unknown,True,0,-,3,-,-,-,-,-,-,10,0,20,-,-,-,-,-,-,-,-,-,-,-,-,-,-,-,-,-,-,-,-,-,-,-,-,-,-,-,-,-,-,-,-,-,-,-,-,-,-,-,-,-,-,-,-,-,-
2025-05-01 21:40:15.341,CollisionTime,Unknown,0,Unknown,True,0,-,3,-,-,-,-,-,-,-,-,-,0.621,-,-,-,-,-,-,-,-,-,-,-,-,-,-,-,-,-,-,-,-,-,-,-,-,-,-,-,-,-,-,-,-,-,-,-,-,-,-,-,-,-,-,-,-,-
2025-05-01 21:40:15.342,MovementDuration,Unknown,0,Unknown,-,-,-,3,-,-,-,-,Success,-,-,-,-,0.621,-,-,-,-,-,-,-,-,-,-,-,-,-,-,-,-,-,-,-,-,-,-,-,-,-,-,-,-,-,-,-,-,-,-,-,-,-,-,-,-,-,-,-,-,-
2025-05-01 21:40:15.344,DecisionOutcome,Unknown,0,Unknown,True,0,Practice_EqualRatio,3,1,1,Work,0.790,Success,True,10,0,0,0.621,-,-,-,-,-,-,-,-,-,5,0.586:right|0.758:right|0.905:right|1.043:right|1.197:right,0.124,False,0.1,-,-,0.00,0.00,0,0,-,-,-,-,-,-,-,-,-,-,-,-,-,-,-,-,-,-,-,-,-,-,-,-,-
2025-05-01 21:40:15.344,MovementComplete,Unknown,0,Unknown,-,-,-,3,-,-,-,-,-,True,-,-,-,-,-,-,-,-,-,-,-,-,-,-,-,-,-,-,-,-,-,-,-,-,-,-,-,-,-,-,-,-,-,-,-,-,-,-,-,-,-,-,-,-,-,-,-,-,-
2025-05-01 21:40:15.345,RewardCollected,Unknown,0,Unknown,-,-,-,3,-,-,-,-,-,-,-,-,-,-,-,-,-,-,-,-,-,-,-,-,-,-,-,-,-,-,-,-,-,-,-,-,-,-,-,-,-,-,-,-,-,-,-,-,-,-,-,-,-,-,-,-,-,-,-
2025-05-01 21:40:15.345,OutcomeType,Unknown,0,Unknown,-,-,-,3,-,-,-,-,Success,-,-,-,-,-,-,-,-,-,-,-,-,-,-,-,-,-,-,-,-,-,-,-,-,-,-,-,-,-,-,-,-,-,-,-,-,-,-,-,-,-,-,-,-,-,-,-,-,-,-
2025-05-01 21:40:15.345,RewardCollected,Unknown,0,Unknown,-,-,-,3,-,-,-,-,-,-,-,-,-,-,-,-,-,-,-,-,-,-,-,-,-,-,-,-,-,-,-,-,-,-,-,-,-,-,-,-,-,-,-,-,-,-,-,-,-,-,-,-,-,-,-,-,-,-,-
2025-05-01 21:40:15.346,ButtonPresses,Unknown,0,Unknown,-,-,-,3,-,-,-,-,-,-,-,-,-,-,-,-,-,-,-,-,-,-,-,5,0.586:right|0.758:right|0.905:right|1.043:right|1.197:right,-,-,-,-,-,-,-,-,-,-,-,-,-,-,-,-,-,-,-,-,-,-,-,-,-,-,-,-,-,-,-,-,-,-
2025-05-01 21:40:15.429,MovementStep,Unknown,0,Unknown,-,0,Practice_EqualRatio,3,1,1,-,-,Success,-,-,-,-,-,29.650,29.749,0.100,True,1,-2.50,1.50,-1.50,1.50,-,-,0.100,True,-,-,-,-,-,-,-,-,-,-,-,-,-,-,-,-,-,-,-,-,-,-,-,-,-,-,-,-,-,-,-,-
2025-05-01 21:40:19.319,InfoMessage,Unknown,0,Unknown,-,-,-,-,-,-,-,-,-,-,-,-,-,-,-,-,-,-,-,-,-,-,-,-,-,-,-,-,-,-,-,-,-,-,-,-,-,-,-,-,-,-,-,-,-,-,-,-,-,-,-,-,-,-,-,-,-,-,-
2025-05-01 21:40:19.907,DecisionOutcome,Unknown,0,Unknown,True,0,Practice_EqualRatio,4,3,5,Skip,0.596,Skip,False,0,0,0,0.000,-,-,-,-,-,-,-,-,-,0,-,-1.000,False,0.1,Skip,3,0.00,0.00,0,0,-,-,-,-,-,-,-,-,-,-,-,-,-,-,-,-,-,-,-,-,-,-,-,-,-
2025-05-01 21:40:19.909,ScoreUpdate,Unknown,0,Unknown,True,0,-,4,-,-,-,-,-,-,0,0,20,-,-,-,-,-,-,-,-,-,-,-,-,-,-,-,-,-,-,-,-,-,-,-,-,-,-,-,-,-,-,-,-,-,-,-,-,-,-,-,-,-,-,-,-,-,-
2025-05-01 21:40:23.119,InfoMessage,Unknown,0,Unknown,-,-,-,-,-,-,-,-,-,-,-,-,-,-,-,-,-,-,-,-,-,-,-,-,-,-,-,-,-,-,-,-,-,-,-,-,-,-,-,-,-,-,-,-,-,-,-,-,-,-,-,-,-,-,-,-,-,-,-
2025-05-01 21:40:23.994,DecisionOutcome,Unknown,0,Unknown,True,0,Practice_EqualRatio,5,2,3,Skip,0.883,Skip,False,0,0,0,0.000,-,-,-,-,-,-,-,-,-,0,-,-1.000,False,0.1,Skip,3,0.00,0.00,0,0,-,-,-,-,-,-,-,-,-,-,-,-,-,-,-,-,-,-,-,-,-,-,-,-,-
2025-05-01 21:40:23.995,ScoreUpdate,Unknown,0,Unknown,True,0,-,5,-,-,-,-,-,-,0,0,20,-,-,-,-,-,-,-,-,-,-,-,-,-,-,-,-,-,-,-,-,-,-,-,-,-,-,-,-,-,-,-,-,-,-,-,-,-,-,-,-,-,-,-,-,-,-
2025-05-01 21:40:27.204,InfoMessage,Unknown,0,Unknown,-,-,-,-,-,-,-,-,-,-,-,-,-,-,-,-,-,-,-,-,-,-,-,-,-,-,-,-,-,-,-,-,-,-,-,-,-,-,-,-,-,-,-,-,-,-,-,-,-,-,-,-,-,-,-,-,-,-,-
2025-05-01 21:40:27.919,DecisionOutcome,Unknown,0,Unknown,True,0,Practice_EqualRatio,6,1,1,Skip,0.725,Skip,False,0,0,0,0.000,-,-,-,-,-,-,-,-,-,0,-,-1.000,False,0.1,Skip,3,0.00,0.00,0,0,-,-,-,-,-,-,-,-,-,-,-,-,-,-,-,-,-,-,-,-,-,-,-,-,-
2025-05-01 21:40:27.920,ScoreUpdate,Unknown,0,Unknown,True,0,-,6,-,-,-,-,-,-,0,0,20,-,-,-,-,-,-,-,-,-,-,-,-,-,-,-,-,-,-,-,-,-,-,-,-,-,-,-,-,-,-,-,-,-,-,-,-,-,-,-,-,-,-,-,-,-,-
2025-05-01 21:40:31.191,InfoMessage,Unknown,0,Unknown,-,-,-,-,-,-,-,-,-,-,-,-,-,-,-,-,-,-,-,-,-,-,-,-,-,-,-,-,-,-,-,-,-,-,-,-,-,-,-,-,-,-,-,-,-,-,-,-,-,-,-,-,-,-,-,-,-,-,-
2025-05-01 21:40:31.944,DecisionOutcome,Unknown,0,Unknown,True,0,Practice_EqualRatio,7,3,5,Skip,0.761,Skip,False,0,0,0,0.000,-,-,-,-,-,-,-,-,-,0,-,-1.000,False,0.1,Skip,3,0.00,0.00,0,0,-,-,-,-,-,-,-,-,-,-,-,-,-,-,-,-,-,-,-,-,-,-,-,-,-
2025-05-01 21:40:31.945,ScoreUpdate,Unknown,0,Unknown,True,0,-,7,-,-,-,-,-,-,0,0,20,-,-,-,-,-,-,-,-,-,-,-,-,-,-,-,-,-,-,-,-,-,-,-,-,-,-,-,-,-,-,-,-,-,-,-,-,-,-,-,-,-,-,-,-,-,-
2025-05-01 21:40:35.143,InfoMessage,Unknown,0,Unknown,-,-,-,-,-,-,-,-,-,-,-,-,-,-,-,-,-,-,-,-,-,-,-,-,-,-,-,-,-,-,-,-,-,-,-,-,-,-,-,-,-,-,-,-,-,-,-,-,-,-,-,-,-,-,-,-,-,-,-
2025-05-01 21:42:06.677,CHECK_QUESTION,Unknown,0,Unknown,-,-,-,1,-,-,-,-,-,-,-,-,-,-,-,-,-,-,-,-,-,-,-,-,-,-,-,-,-,-,-,-,-,-,-,-,-,-,-,-,-,1,1,FruitPreference,"Choose preferred fruit between Watermelon(Clone) and Grapes(Clone)",F,T,False,4.310,-,-,-,-,-,-,-,-,-,-
2025-05-01 21:42:08.975,CHECK_QUESTION,Unknown,0,Unknown,-,-,-,2,-,-,-,-,-,-,-,-,-,-,-,-,-,-,-,-,-,-,-,-,-,-,-,-,-,-,-,-,-,-,-,-,-,-,-,-,-,1,2,FruitPreference,"Choose preferred fruit between Grapes(Clone) and Watermelon(Clone)",F,T,False,0.321,-,-,-,-,-,-,-,-,-,-
2025-05-01 21:42:11.648,CHECK_QUESTION,Unknown,0,Unknown,-,-,-,3,-,-,-,-,-,-,-,-,-,-,-,-,-,-,-,-,-,-,-,-,-,-,-,-,-,-,-,-,-,-,-,-,-,-,-,-,-,1,3,FruitPreference,"Choose preferred fruit between Apple(Clone) and Grapes(Clone)",T,T,True,0.672,-,-,-,-,-,-,-,-,-,-
2025-05-01 21:42:13.972,CHECK_QUESTION,Unknown,0,Unknown,-,-,-,4,-,-,-,-,-,-,-,-,-,-,-,-,-,-,-,-,-,-,-,-,-,-,-,-,-,-,-,-,-,-,-,-,-,-,-,-,-,1,4,FruitPreference,"Choose preferred fruit between Grapes(Clone) and Apple(Clone)",T,T,True,0.336,-,-,-,-,-,-,-,-,-,-
2025-05-01 21:42:17.700,CHECK_QUESTION,Unknown,0,Unknown,-,-,-,5,-,-,-,-,-,-,-,-,-,-,-,-,-,-,-,-,-,-,-,-,-,-,-,-,-,-,-,-,-,-,-,-,-,-,-,-,-,1,5,FruitPreference,"Choose preferred fruit between Watermelon(Clone) and Apple(Clone)",F,T,False,1.746,-,-,-,-,-,-,-,-,-,-
2025-05-01 21:42:20.029,CHECK_QUESTION,Unknown,0,Unknown,-,-,-,6,-,-,-,-,-,-,-,-,-,-,-,-,-,-,-,-,-,-,-,-,-,-,-,-,-,-,-,-,-,-,-,-,-,-,-,-,-,1,6,FruitPreference,"Choose preferred fruit between Apple(Clone) and Watermelon(Clone)",T,T,True,0.334,-,-,-,-,-,-,-,-,-,-
2025-05-01 21:42:26.032,InfoMessage,Unknown,0,Unknown,-,-,-,-,-,-,-,-,-,-,-,-,-,-,-,-,-,-,-,-,-,-,-,-,-,-,-,-,-,-,-,-,-,-,-,-,-,-,-,-,-,-,-,-,-,-,-,-,-,-,-,-,-,-,-,-,-,-,-
2025-05-01 21:42:28.201,PracticeTrialStart,Unknown,0,Unknown,True,0,-,1,-,-,-,-,-,-,-,-,-,-,-,-,-,-,-,-,-,-,-,-,-,-,-,-,-,-,-,-,-,-,-,-,-,-,-,-,-,-,-,-,-,-,-,-,-,-,-,-,-,-,-,-,-,-,-
2025-05-01 21:42:29.380,MovementStart,Unknown,0,Unknown,-,0,-,1,-,-,-,-,-,-,-,-,-,-,-,-,-,-,-,-3.50,0.50,-,-,-,-,-,-,-,-,-,-,-,-,-,-,-,-,-,-,-,-,-,-,-,-,-,-,-,-,-,-,-,-,-,-,-,-,-,-
2025-05-01 21:42:29.480,MovementStep,Unknown,0,Unknown,-,0,Practice_HighLowRatio,1,1,1,-,-,Pending,-,-,-,-,-,160.895,160.995,0.100,True,1,-3.50,0.50,-2.50,0.50,-,-,0.100,True,-,-,-,-,-,-,-,-,-,-,-,-,-,-,-,-,-,-,-,-,-,-,-,-,-,-,-,-,-,-,-,-
2025-05-01 21:42:29.549,MovementStart,Unknown,0,Unknown,-,0,-,1,-,-,-,-,-,-,-,-,-,-,-,-,-,-,-,-2.50,0.50,-,-,-,-,-,-,-,-,-,-,-,-,-,-,-,-,-,-,-,-,-,-,-,-,-,-,-,-,-,-,-,-,-,-,-,-,-,-
2025-05-01 21:42:29.649,MovementStep,Unknown,0,Unknown,-,0,Practice_HighLowRatio,1,1,1,-,-,Pending,-,-,-,-,-,161.064,161.164,0.100,True,1,-2.50,0.50,-1.50,0.50,-,-,0.100,True,-,-,-,-,-,-,-,-,-,-,-,-,-,-,-,-,-,-,-,-,-,-,-,-,-,-,-,-,-,-,-,-
2025-05-01 21:42:29.694,MovementStart,Unknown,0,Unknown,-,0,-,1,-,-,-,-,-,-,-,-,-,-,-,-,-,-,-,-1.50,0.50,-,-,-,-,-,-,-,-,-,-,-,-,-,-,-,-,-,-,-,-,-,-,-,-,-,-,-,-,-,-,-,-,-,-,-,-,-,-
2025-05-01 21:42:29.793,MovementStep,Unknown,0,Unknown,-,0,Practice_HighLowRatio,1,1,1,-,-,Pending,-,-,-,-,-,161.209,161.308,0.100,True,1,-1.50,0.50,-0.50,0.50,-,-,0.100,True,-,-,-,-,-,-,-,-,-,-,-,-,-,-,-,-,-,-,-,-,-,-,-,-,-,-,-,-,-,-,-,-
2025-05-01 21:42:29.838,MovementStart,Unknown,0,Unknown,-,0,-,1,-,-,-,-,-,-,-,-,-,-,-,-,-,-,-,-0.50,0.50,-,-,-,-,-,-,-,-,-,-,-,-,-,-,-,-,-,-,-,-,-,-,-,-,-,-,-,-,-,-,-,-,-,-,-,-,-,-
2025-05-01 21:42:29.937,MovementStep,Unknown,0,Unknown,-,0,Practice_HighLowRatio,1,1,1,-,-,Pending,-,-,-,-,-,161.353,161.452,0.100,True,1,-0.50,0.50,0.50,0.50,-,-,0.100,True,-,-,-,-,-,-,-,-,-,-,-,-,-,-,-,-,-,-,-,-,-,-,-,-,-,-,-,-,-,-,-,-
2025-05-01 21:42:29.984,MovementStart,Unknown,0,Unknown,-,0,-,1,-,-,-,-,-,-,-,-,-,-,-,-,-,-,-,0.50,0.50,-,-,-,-,-,-,-,-,-,-,-,-,-,-,-,-,-,-,-,-,-,-,-,-,-,-,-,-,-,-,-,-,-,-,-,-,-,-
2025-05-01 21:42:30.007,ScoreUpdate,Unknown,0,Unknown,True,0,-,1,-,-,-,-,-,-,10,0,30,-,-,-,-,-,-,-,-,-,-,-,-,-,-,-,-,-,-,-,-,-,-,-,-,-,-,-,-,-,-,-,-,-,-,-,-,-,-,-,-,-,-,-,-,-,-
2025-05-01 21:42:30.007,CollisionTime,Unknown,0,Unknown,True,0,-,1,-,-,-,-,-,-,-,-,-,0.625,-,-,-,-,-,-,-,-,-,-,-,-,-,-,-,-,-,-,-,-,-,-,-,-,-,-,-,-,-,-,-,-,-,-,-,-,-,-,-,-,-,-,-,-,-
2025-05-01 21:42:30.008,MovementDuration,Unknown,0,Unknown,-,-,-,1,-,-,-,-,Success,-,-,-,-,0.625,-,-,-,-,-,-,-,-,-,-,-,-,-,-,-,-,-,-,-,-,-,-,-,-,-,-,-,-,-,-,-,-,-,-,-,-,-,-,-,-,-,-,-,-,-
2025-05-01 21:42:30.010,DecisionOutcome,Unknown,0,Unknown,True,0,Practice_HighLowRatio,1,1,1,Work,0.640,Success,True,10,0,0,0.625,-,-,-,-,-,-,-,-,-,5,1.071:right|1.240:right|1.384:right|1.528:right|1.675:right,0.125,False,0.1,-,-,0.00,0.00,0,0,-,-,-,-,-,-,-,-,-,-,-,-,-,-,-,-,-,-,-,-,-,-,-,-,-
2025-05-01 21:42:30.010,MovementComplete,Unknown,0,Unknown,-,-,-,1,-,-,-,-,-,True,-,-,-,-,-,-,-,-,-,-,-,-,-,-,-,-,-,-,-,-,-,-,-,-,-,-,-,-,-,-,-,-,-,-,-,-,-,-,-,-,-,-,-,-,-,-,-,-,-
2025-05-01 21:42:30.011,RewardCollected,Unknown,0,Unknown,-,-,-,1,-,-,-,-,-,-,-,-,-,-,-,-,-,-,-,-,-,-,-,-,-,-,-,-,-,-,-,-,-,-,-,-,-,-,-,-,-,-,-,-,-,-,-,-,-,-,-,-,-,-,-,-,-,-,-
2025-05-01 21:42:30.011,OutcomeType,Unknown,0,Unknown,-,-,-,1,-,-,-,-,Success,-,-,-,-,-,-,-,-,-,-,-,-,-,-,-,-,-,-,-,-,-,-,-,-,-,-,-,-,-,-,-,-,-,-,-,-,-,-,-,-,-,-,-,-,-,-,-,-,-,-
2025-05-01 21:42:30.011,RewardCollected,Unknown,0,Unknown,-,-,-,1,-,-,-,-,-,-,-,-,-,-,-,-,-,-,-,-,-,-,-,-,-,-,-,-,-,-,-,-,-,-,-,-,-,-,-,-,-,-,-,-,-,-,-,-,-,-,-,-,-,-,-,-,-,-,-
2025-05-01 21:42:30.012,ButtonPresses,Unknown,0,Unknown,-,-,-,1,-,-,-,-,-,-,-,-,-,-,-,-,-,-,-,-,-,-,-,5,1.071:right|1.240:right|1.384:right|1.528:right|1.675:right,-,-,-,-,-,-,-,-,-,-,-,-,-,-,-,-,-,-,-,-,-,-,-,-,-,-,-,-,-,-,-,-,-,-
2025-05-01 21:42:30.085,MovementStep,Unknown,0,Unknown,-,0,Practice_HighLowRatio,1,1,1,-,-,Success,-,-,-,-,-,161.500,161.600,0.100,True,1,0.50,0.50,1.50,0.50,-,-,0.100,False,-,-,-,-,-,-,-,-,-,-,-,-,-,-,-,-,-,-,-,-,-,-,-,-,-,-,-,-,-,-,-,-
2025-05-01 21:42:33.508,InfoMessage,Unknown,0,Unknown,-,-,-,-,-,-,-,-,-,-,-,-,-,-,-,-,-,-,-,-,-,-,-,-,-,-,-,-,-,-,-,-,-,-,-,-,-,-,-,-,-,-,-,-,-,-,-,-,-,-,-,-,-,-,-,-,-,-,-
2025-05-01 21:42:36.311,PracticeTrialStart,Unknown,0,Unknown,True,0,-,2,-,-,-,-,-,-,-,-,-,-,-,-,-,-,-,-,-,-,-,-,-,-,-,-,-,-,-,-,-,-,-,-,-,-,-,-,-,-,-,-,-,-,-,-,-,-,-,-,-,-,-,-,-,-,-
2025-05-01 21:42:36.987,MovementStart,Unknown,0,Unknown,-,0,-,2,-,-,-,-,-,-,-,-,-,-,-,-,-,-,-,6.50,1.50,-,-,-,-,-,-,-,-,-,-,-,-,-,-,-,-,-,-,-,-,-,-,-,-,-,-,-,-,-,-,-,-,-,-,-,-,-,-
2025-05-01 21:42:37.088,MovementStep,Unknown,0,Unknown,-,0,Practice_HighLowRatio,2,1,1,-,-,Pending,-,-,-,-,-,167.912,168.012,0.100,True,1,6.50,1.50,5.50,1.50,-,-,0.100,False,-,-,-,-,-,-,-,-,-,-,-,-,-,-,-,-,-,-,-,-,-,-,-,-,-,-,-,-,-,-,-,-
2025-05-01 21:42:37.170,MovementStart,Unknown,0,Unknown,-,0,-,2,-,-,-,-,-,-,-,-,-,-,-,-,-,-,-,5.50,1.50,-,-,-,-,-,-,-,-,-,-,-,-,-,-,-,-,-,-,-,-,-,-,-,-,-,-,-,-,-,-,-,-,-,-,-,-,-,-
2025-05-01 21:42:37.270,MovementStep,Unknown,0,Unknown,-,0,Practice_HighLowRatio,2,1,1,-,-,Pending,-,-,-,-,-,168.095,168.195,0.100,True,1,5.50,1.50,4.50,1.50,-,-,0.100,False,-,-,-,-,-,-,-,-,-,-,-,-,-,-,-,-,-,-,-,-,-,-,-,-,-,-,-,-,-,-,-,-
2025-05-01 21:42:37.325,MovementStart,Unknown,0,Unknown,-,0,-,2,-,-,-,-,-,-,-,-,-,-,-,-,-,-,-,4.50,1.50,-,-,-,-,-,-,-,-,-,-,-,-,-,-,-,-,-,-,-,-,-,-,-,-,-,-,-,-,-,-,-,-,-,-,-,-,-,-
2025-05-01 21:42:37.423,MovementStep,Unknown,0,Unknown,-,0,Practice_HighLowRatio,2,1,1,-,-,Pending,-,-,-,-,-,168.250,168.348,0.098,True,1,4.50,1.50,3.50,1.50,-,-,0.098,True,-,-,-,-,-,-,-,-,-,-,-,-,-,-,-,-,-,-,-,-,-,-,-,-,-,-,-,-,-,-,-,-
2025-05-01 21:42:37.477,MovementStart,Unknown,0,Unknown,-,0,-,2,-,-,-,-,-,-,-,-,-,-,-,-,-,-,-,3.50,1.50,-,-,-,-,-,-,-,-,-,-,-,-,-,-,-,-,-,-,-,-,-,-,-,-,-,-,-,-,-,-,-,-,-,-,-,-,-,-
2025-05-01 21:42:37.578,MovementStep,Unknown,0,Unknown,-,0,Practice_HighLowRatio,2,1,1,-,-,Pending,-,-,-,-,-,168.402,168.502,0.100,True,1,3.50,1.50,2.50,1.50,-,-,0.100,False,-,-,-,-,-,-,-,-,-,-,-,-,-,-,-,-,-,-,-,-,-,-,-,-,-,-,-,-,-,-,-,-
2025-05-01 21:42:37.639,MovementStart,Unknown,0,Unknown,-,0,-,2,-,-,-,-,-,-,-,-,-,-,-,-,-,-,-,2.50,1.50,-,-,-,-,-,-,-,-,-,-,-,-,-,-,-,-,-,-,-,-,-,-,-,-,-,-,-,-,-,-,-,-,-,-,-,-,-,-
2025-05-01 21:42:37.657,ScoreUpdate,Unknown,0,Unknown,True,0,-,2,-,-,-,-,-,-,10,0,40,-,-,-,-,-,-,-,-,-,-,-,-,-,-,-,-,-,-,-,-,-,-,-,-,-,-,-,-,-,-,-,-,-,-,-,-,-,-,-,-,-,-,-,-,-,-
2025-05-01 21:42:37.658,CollisionTime,Unknown,0,Unknown,True,0,-,2,-,-,-,-,-,-,-,-,-,0.668,-,-,-,-,-,-,-,-,-,-,-,-,-,-,-,-,-,-,-,-,-,-,-,-,-,-,-,-,-,-,-,-,-,-,-,-,-,-,-,-,-,-,-,-,-
2025-05-01 21:42:37.658,MovementDuration,Unknown,0,Unknown,-,-,-,2,-,-,-,-,Success,-,-,-,-,0.668,-,-,-,-,-,-,-,-,-,-,-,-,-,-,-,-,-,-,-,-,-,-,-,-,-,-,-,-,-,-,-,-,-,-,-,-,-,-,-,-,-,-,-,-,-
2025-05-01 21:42:37.660,DecisionOutcome,Unknown,0,Unknown,True,0,Practice_HighLowRatio,2,1,1,Work,1.303,Success,True,10,0,0,0.668,-,-,-,-,-,-,-,-,-,5,0.569:left|0.751:left|0.907:left|1.059:left|1.220:left,0.134,False,0.1,-,-,0.00,0.00,0,0,-,-,-,-,-,-,-,-,-,-,-,-,-,-,-,-,-,-,-,-,-,-,-,-,-
2025-05-01 21:42:37.661,MovementComplete,Unknown,0,Unknown,-,-,-,2,-,-,-,-,-,True,-,-,-,-,-,-,-,-,-,-,-,-,-,-,-,-,-,-,-,-,-,-,-,-,-,-,-,-,-,-,-,-,-,-,-,-,-,-,-,-,-,-,-,-,-,-,-,-,-
2025-05-01 21:42:37.661,RewardCollected,Unknown,0,Unknown,-,-,-,2,-,-,-,-,-,-,-,-,-,-,-,-,-,-,-,-,-,-,-,-,-,-,-,-,-,-,-,-,-,-,-,-,-,-,-,-,-,-,-,-,-,-,-,-,-,-,-,-,-,-,-,-,-,-,-
2025-05-01 21:42:37.662,OutcomeType,Unknown,0,Unknown,-,-,-,2,-,-,-,-,Success,-,-,-,-,-,-,-,-,-,-,-,-,-,-,-,-,-,-,-,-,-,-,-,-,-,-,-,-,-,-,-,-,-,-,-,-,-,-,-,-,-,-,-,-,-,-,-,-,-,-
2025-05-01 21:42:37.662,RewardCollected,Unknown,0,Unknown,-,-,-,2,-,-,-,-,-,-,-,-,-,-,-,-,-,-,-,-,-,-,-,-,-,-,-,-,-,-,-,-,-,-,-,-,-,-,-,-,-,-,-,-,-,-,-,-,-,-,-,-,-,-,-,-,-,-,-
2025-05-01 21:42:37.662,ButtonPresses,Unknown,0,Unknown,-,-,-,2,-,-,-,-,-,-,-,-,-,-,-,-,-,-,-,-,-,-,-,5,0.569:left|0.751:left|0.907:left|1.059:left|1.220:left,-,-,-,-,-,-,-,-,-,-,-,-,-,-,-,-,-,-,-,-,-,-,-,-,-,-,-,-,-,-,-,-,-,-
2025-05-01 21:42:37.738,MovementStep,Unknown,0,Unknown,-,0,Practice_HighLowRatio,2,1,1,-,-,Success,-,-,-,-,-,168.563,168.663,0.099,True,1,2.50,1.50,1.50,1.50,-,-,0.099,True,-,-,-,-,-,-,-,-,-,-,-,-,-,-,-,-,-,-,-,-,-,-,-,-,-,-,-,-,-,-,-,-
2025-05-01 21:42:41.613,InfoMessage,Unknown,0,Unknown,-,-,-,-,-,-,-,-,-,-,-,-,-,-,-,-,-,-,-,-,-,-,-,-,-,-,-,-,-,-,-,-,-,-,-,-,-,-,-,-,-,-,-,-,-,-,-,-,-,-,-,-,-,-,-,-,-,-,-
2025-05-01 21:42:44.136,PracticeTrialStart,Unknown,0,Unknown,True,0,-,3,-,-,-,-,-,-,-,-,-,-,-,-,-,-,-,-,-,-,-,-,-,-,-,-,-,-,-,-,-,-,-,-,-,-,-,-,-,-,-,-,-,-,-,-,-,-,-,-,-,-,-,-,-,-,-
2025-05-01 21:42:46.774,MovementStart,Unknown,0,Unknown,-,0,-,3,-,-,-,-,-,-,-,-,-,-,-,-,-,-,-,5.50,1.50,-,-,-,-,-,-,-,-,-,-,-,-,-,-,-,-,-,-,-,-,-,-,-,-,-,-,-,-,-,-,-,-,-,-,-,-,-,-
2025-05-01 21:42:46.874,MovementStep,Unknown,0,Unknown,-,0,Practice_HighLowRatio,3,2,3,-,-,Pending,-,-,-,-,-,176.728,177.191,0.463,True,3,5.50,1.50,4.50,1.50,-,-,0.154,False,-,-,-,-,-,-,-,-,-,-,-,-,-,-,-,-,-,-,-,-,-,-,-,-,-,-,-,-,-,-,-,-
2025-05-01 21:42:47.295,MovementStart,Unknown,0,Unknown,-,0,-,3,-,-,-,-,-,-,-,-,-,-,-,-,-,-,-,4.50,1.50,-,-,-,-,-,-,-,-,-,-,-,-,-,-,-,-,-,-,-,-,-,-,-,-,-,-,-,-,-,-,-,-,-,-,-,-,-,-
2025-05-01 21:42:47.395,MovementStep,Unknown,0,Unknown,-,0,Practice_HighLowRatio,3,2,3,-,-,Pending,-,-,-,-,-,177.278,177.712,0.434,True,3,4.50,1.50,3.50,1.50,-,-,0.145,False,-,-,-,-,-,-,-,-,-,-,-,-,-,-,-,-,-,-,-,-,-,-,-,-,-,-,-,-,-,-,-,-
2025-05-01 21:42:47.785,MovementStart,Unknown,0,Unknown,-,0,-,3,-,-,-,-,-,-,-,-,-,-,-,-,-,-,-,3.50,1.50,-,-,-,-,-,-,-,-,-,-,-,-,-,-,-,-,-,-,-,-,-,-,-,-,-,-,-,-,-,-,-,-,-,-,-,-,-,-
2025-05-01 21:42:47.885,MovementStep,Unknown,0,Unknown,-,0,Practice_HighLowRatio,3,2,3,-,-,Pending,-,-,-,-,-,177.771,178.201,0.430,True,3,3.50,1.50,2.50,1.50,-,-,0.143,False,-,-,-,-,-,-,-,-,-,-,-,-,-,-,-,-,-,-,-,-,-,-,-,-,-,-,-,-,-,-,-,-
2025-05-01 21:42:49.228,MovementDuration,Unknown,0,Unknown,-,-,-,3,-,-,-,-,Failure,-,-,-,-,2.817,-,-,-,-,-,-,-,-,-,-,-,-,-,-,-,-,-,-,-,-,-,-,-,-,-,-,-,-,-,-,-,-,-,-,-,-,-,-,-,-,-,-,-,-,-
2025-05-01 21:42:49.229,OutcomeType,Unknown,0,Unknown,-,-,-,3,-,-,-,-,Failure,-,-,-,-,-,-,-,-,-,-,-,-,-,-,-,-,-,-,-,-,-,-,-,-,-,-,-,-,-,-,-,-,-,-,-,-,-,-,-,-,-,-,-,-,-,-,-,-,-,-
2025-05-01 21:42:49.229,RewardCollected,Unknown,0,Unknown,-,-,-,3,-,-,-,-,-,-,-,-,-,-,-,-,-,-,-,-,-,-,-,-,-,-,-,-,-,-,-,-,-,-,-,-,-,-,-,-,-,-,-,-,-,-,-,-,-,-,-,-,-,-,-,-,-,-,-
2025-05-01 21:42:49.229,ButtonPresses,Unknown,0,Unknown,-,-,-,3,-,-,-,-,-,-,-,-,-,-,-,-,-,-,-,-,-,-,-,11,2.164:left|2.350:left|2.526:left|2.713:left|2.881:left|3.047:left|3.206:left|3.374:left|3.536:left|3.719:left|3.910:left,-,-,-,-,-,-,-,-,-,-,-,-,-,-,-,-,-,-,-,-,-,-,-,-,-,-,-,-,-,-,-,-,-,-
2025-05-01 21:42:49.232,DecisionOutcome,Unknown,0,Unknown,True,0,Practice_HighLowRatio,3,2,3,Work,1.008,Failure,False,0,0,0,2.817,-,-,-,-,-,-,-,-,-,11,2.164:left|2.350:left|2.526:left|2.713:left|2.881:left|3.047:left|3.206:left|3.374:left|3.536:left|3.719:left|3.910:left,0.256,False,0.1,-,-,0.00,0.00,0,0,-,-,-,-,-,-,-,-,-,-,-,-,-,-,-,-,-,-,-,-,-,-,-,-,-
2025-05-01 21:42:49.232,ButtonPresses,Unknown,0,Unknown,-,-,-,3,-,-,-,-,-,-,-,-,-,-,-,-,-,-,-,-,-,-,-,11,2.164:left|2.350:left|2.526:left|2.713:left|2.881:left|3.047:left|3.206:left|3.374:left|3.536:left|3.719:left|3.910:left,-,-,-,-,-,-,-,-,-,-,-,-,-,-,-,-,-,-,-,-,-,-,-,-,-,-,-,-,-,-,-,-,-,-
2025-05-01 21:42:49.233,MovementComplete,Unknown,0,Unknown,-,-,-,3,-,-,-,-,-,False,-,-,-,-,-,-,-,-,-,-,-,-,-,-,-,-,-,-,-,-,-,-,-,-,-,-,-,-,-,-,-,-,-,-,-,-,-,-,-,-,-,-,-,-,-,-,-,-,-
2025-05-01 21:42:49.233,RewardCollected,Unknown,0,Unknown,-,-,-,3,-,-,-,-,-,-,-,-,-,-,-,-,-,-,-,-,-,-,-,-,-,-,-,-,-,-,-,-,-,-,-,-,-,-,-,-,-,-,-,-,-,-,-,-,-,-,-,-,-,-,-,-,-,-,-
2025-05-01 21:42:49.461,InfoMessage,Unknown,0,Unknown,-,-,-,-,-,-,-,-,-,-,-,-,-,-,-,-,-,-,-,-,-,-,-,-,-,-,-,-,-,-,-,-,-,-,-,-,-,-,-,-,-,-,-,-,-,-,-,-,-,-,-,-,-,-,-,-,-,-,-
2025-05-01 21:42:52.356,PracticeTrialStart,Unknown,0,Unknown,True,0,-,4,-,-,-,-,-,-,-,-,-,-,-,-,-,-,-,-,-,-,-,-,-,-,-,-,-,-,-,-,-,-,-,-,-,-,-,-,-,-,-,-,-,-,-,-,-,-,-,-,-,-,-,-,-,-,-
2025-05-01 21:42:55.145,MovementStart,Unknown,0,Unknown,-,0,-,4,-,-,-,-,-,-,-,-,-,-,-,-,-,-,-,-7.50,-0.50,-,-,-,-,-,-,-,-,-,-,-,-,-,-,-,-,-,-,-,-,-,-,-,-,-,-,-,-,-,-,-,-,-,-,-,-,-,-
2025-05-01 21:42:55.245,MovementStep,Unknown,0,Unknown,-,0,Practice_HighLowRatio,4,2,3,-,-,Pending,-,-,-,-,-,184.434,184.949,0.515,True,3,-7.50,-0.50,-6.50,-0.50,-,-,0.172,False,-,-,-,-,-,-,-,-,-,-,-,-,-,-,-,-,-,-,-,-,-,-,-,-,-,-,-,-,-,-,-,-
2025-05-01 21:42:55.603,MovementStart,Unknown,0,Unknown,-,0,-,4,-,-,-,-,-,-,-,-,-,-,-,-,-,-,-,-6.50,-0.50,-,-,-,-,-,-,-,-,-,-,-,-,-,-,-,-,-,-,-,-,-,-,-,-,-,-,-,-,-,-,-,-,-,-,-,-,-,-
2025-05-01 21:42:55.703,MovementStep,Unknown,0,Unknown,-,0,Practice_HighLowRatio,4,2,3,-,-,Pending,-,-,-,-,-,185.007,185.406,0.399,True,3,-6.50,-0.50,-5.50,-0.50,-,-,0.133,False,-,-,-,-,-,-,-,-,-,-,-,-,-,-,-,-,-,-,-,-,-,-,-,-,-,-,-,-,-,-,-,-
2025-05-01 21:42:56.078,MovementStart,Unknown,0,Unknown,-,0,-,4,-,-,-,-,-,-,-,-,-,-,-,-,-,-,-,-5.50,-0.50,-,-,-,-,-,-,-,-,-,-,-,-,-,-,-,-,-,-,-,-,-,-,-,-,-,-,-,-,-,-,-,-,-,-,-,-,-,-
2025-05-01 21:42:56.179,MovementStep,Unknown,0,Unknown,-,0,Practice_HighLowRatio,4,2,3,-,-,Pending,-,-,-,-,-,185.464,185.882,0.418,True,3,-5.50,-0.50,-4.50,-0.50,-,-,0.139,False,-,-,-,-,-,-,-,-,-,-,-,-,-,-,-,-,-,-,-,-,-,-,-,-,-,-,-,-,-,-,-,-
2025-05-01 21:42:57.446,MovementDuration,Unknown,0,Unknown,-,-,-,4,-,-,-,-,Failure,-,-,-,-,2.715,-,-,-,-,-,-,-,-,-,-,-,-,-,-,-,-,-,-,-,-,-,-,-,-,-,-,-,-,-,-,-,-,-,-,-,-,-,-,-,-,-,-,-,-,-
2025-05-01 21:42:57.446,OutcomeType,Unknown,0,Unknown,-,-,-,4,-,-,-,-,Failure,-,-,-,-,-,-,-,-,-,-,-,-,-,-,-,-,-,-,-,-,-,-,-,-,-,-,-,-,-,-,-,-,-,-,-,-,-,-,-,-,-,-,-,-,-,-,-,-,-,-
2025-05-01 21:42:57.446,RewardCollected,Unknown,0,Unknown,-,-,-,4,-,-,-,-,-,-,-,-,-,-,-,-,-,-,-,-,-,-,-,-,-,-,-,-,-,-,-,-,-,-,-,-,-,-,-,-,-,-,-,-,-,-,-,-,-,-,-,-,-,-,-,-,-,-,-
2025-05-01 21:42:57.447,ButtonPresses,Unknown,0,Unknown,-,-,-,4,-,-,-,-,-,-,-,-,-,-,-,-,-,-,-,-,-,-,-,10,2.262:right|2.565:right|2.677:right|2.836:right|2.979:right|3.135:right|3.293:right|3.452:right|3.610:right|3.766:right,-,-,-,-,-,-,-,-,-,-,-,-,-,-,-,-,-,-,-,-,-,-,-,-,-,-,-,-,-,-,-,-,-,-
2025-05-01 21:42:57.449,DecisionOutcome,Unknown,0,Unknown,True,0,Practice_HighLowRatio,4,2,3,Work,1.387,Failure,False,0,0,0,2.715,-,-,-,-,-,-,-,-,-,10,2.262:right|2.565:right|2.677:right|2.836:right|2.979:right|3.135:right|3.293:right|3.452:right|3.610:right|3.766:right,0.272,False,0.1,-,-,0.00,0.00,0,0,-,-,-,-,-,-,-,-,-,-,-,-,-,-,-,-,-,-,-,-,-,-,-,-,-
2025-05-01 21:42:57.450,ButtonPresses,Unknown,0,Unknown,-,-,-,4,-,-,-,-,-,-,-,-,-,-,-,-,-,-,-,-,-,-,-,10,2.262:right|2.565:right|2.677:right|2.836:right|2.979:right|3.135:right|3.293:right|3.452:right|3.610:right|3.766:right,-,-,-,-,-,-,-,-,-,-,-,-,-,-,-,-,-,-,-,-,-,-,-,-,-,-,-,-,-,-,-,-,-,-
2025-05-01 21:42:57.450,MovementComplete,Unknown,0,Unknown,-,-,-,4,-,-,-,-,-,False,-,-,-,-,-,-,-,-,-,-,-,-,-,-,-,-,-,-,-,-,-,-,-,-,-,-,-,-,-,-,-,-,-,-,-,-,-,-,-,-,-,-,-,-,-,-,-,-,-
2025-05-01 21:42:57.450,RewardCollected,Unknown,0,Unknown,-,-,-,4,-,-,-,-,-,-,-,-,-,-,-,-,-,-,-,-,-,-,-,-,-,-,-,-,-,-,-,-,-,-,-,-,-,-,-,-,-,-,-,-,-,-,-,-,-,-,-,-,-,-,-,-,-,-,-
2025-05-01 21:42:57.675,InfoMessage,Unknown,0,Unknown,-,-,-,-,-,-,-,-,-,-,-,-,-,-,-,-,-,-,-,-,-,-,-,-,-,-,-,-,-,-,-,-,-,-,-,-,-,-,-,-,-,-,-,-,-,-,-,-,-,-,-,-,-,-,-,-,-,-,-
2025-05-01 21:43:00.181,PracticeTrialStart,Unknown,0,Unknown,True,0,-,5,-,-,-,-,-,-,-,-,-,-,-,-,-,-,-,-,-,-,-,-,-,-,-,-,-,-,-,-,-,-,-,-,-,-,-,-,-,-,-,-,-,-,-,-,-,-,-,-,-,-,-,-,-,-,-
2025-05-01 21:43:01.384,MovementStart,Unknown,0,Unknown,-,0,-,5,-,-,-,-,-,-,-,-,-,-,-,-,-,-,-,3.50,-2.50,-,-,-,-,-,-,-,-,-,-,-,-,-,-,-,-,-,-,-,-,-,-,-,-,-,-,-,-,-,-,-,-,-,-,-,-,-,-
2025-05-01 21:43:01.484,MovementStep,Unknown,0,Unknown,-,0,Practice_HighLowRatio,5,3,5,-,-,Pending,-,-,-,-,-,189.770,190.572,0.803,True,5,3.50,-2.50,2.50,-2.50,-,-,0.161,False,-,-,-,-,-,-,-,-,-,-,-,-,-,-,-,-,-,-,-,-,-,-,-,-,-,-,-,-,-,-,-,-
2025-05-01 21:43:05.271,MovementDuration,Unknown,0,Unknown,-,-,-,5,-,-,-,-,Failure,-,-,-,-,4.590,-,-,-,-,-,-,-,-,-,-,-,-,-,-,-,-,-,-,-,-,-,-,-,-,-,-,-,-,-,-,-,-,-,-,-,-,-,-,-,-,-,-,-,-,-
2025-05-01 21:43:05.272,OutcomeType,Unknown,0,Unknown,-,-,-,5,-,-,-,-,Failure,-,-,-,-,-,-,-,-,-,-,-,-,-,-,-,-,-,-,-,-,-,-,-,-,-,-,-,-,-,-,-,-,-,-,-,-,-,-,-,-,-,-,-,-,-,-,-,-,-,-
2025-05-01 21:43:05.272,RewardCollected,Unknown,0,Unknown,-,-,-,5,-,-,-,-,-,-,-,-,-,-,-,-,-,-,-,-,-,-,-,-,-,-,-,-,-,-,-,-,-,-,-,-,-,-,-,-,-,-,-,-,-,-,-,-,-,-,-,-,-,-,-,-,-,-,-
2025-05-01 21:43:05.273,ButtonPresses,Unknown,0,Unknown,-,-,-,5,-,-,-,-,-,-,-,-,-,-,-,-,-,-,-,-,-,-,-,7,0.391:left|0.617:left|0.779:left|0.946:left|1.093:left|1.383:left|1.538:left,-,-,-,-,-,-,-,-,-,-,-,-,-,-,-,-,-,-,-,-,-,-,-,-,-,-,-,-,-,-,-,-,-,-
2025-05-01 21:43:05.275,DecisionOutcome,Unknown,0,Unknown,True,0,Practice_HighLowRatio,5,3,5,Work,0.995,Failure,False,0,0,0,4.590,-,-,-,-,-,-,-,-,-,7,0.391:left|0.617:left|0.779:left|0.946:left|1.093:left|1.383:left|1.538:left,0.656,False,0.1,-,-,0.00,0.00,0,0,-,-,-,-,-,-,-,-,-,-,-,-,-,-,-,-,-,-,-,-,-,-,-,-,-
2025-05-01 21:43:05.276,ButtonPresses,Unknown,0,Unknown,-,-,-,5,-,-,-,-,-,-,-,-,-,-,-,-,-,-,-,-,-,-,-,7,0.391:left|0.617:left|0.779:left|0.946:left|1.093:left|1.383:left|1.538:left,-,-,-,-,-,-,-,-,-,-,-,-,-,-,-,-,-,-,-,-,-,-,-,-,-,-,-,-,-,-,-,-,-,-
2025-05-01 21:43:05.276,MovementComplete,Unknown,0,Unknown,-,-,-,5,-,-,-,-,-,False,-,-,-,-,-,-,-,-,-,-,-,-,-,-,-,-,-,-,-,-,-,-,-,-,-,-,-,-,-,-,-,-,-,-,-,-,-,-,-,-,-,-,-,-,-,-,-,-,-
2025-05-01 21:43:05.277,RewardCollected,Unknown,0,Unknown,-,-,-,5,-,-,-,-,-,-,-,-,-,-,-,-,-,-,-,-,-,-,-,-,-,-,-,-,-,-,-,-,-,-,-,-,-,-,-,-,-,-,-,-,-,-,-,-,-,-,-,-,-,-,-,-,-,-,-
2025-05-01 21:43:05.491,InfoMessage,Unknown,0,Unknown,-,-,-,-,-,-,-,-,-,-,-,-,-,-,-,-,-,-,-,-,-,-,-,-,-,-,-,-,-,-,-,-,-,-,-,-,-,-,-,-,-,-,-,-,-,-,-,-,-,-,-,-,-,-,-,-,-,-,-
2025-05-01 21:43:07.889,PracticeTrialStart,Unknown,0,Unknown,True,0,-,6,-,-,-,-,-,-,-,-,-,-,-,-,-,-,-,-,-,-,-,-,-,-,-,-,-,-,-,-,-,-,-,-,-,-,-,-,-,-,-,-,-,-,-,-,-,-,-,-,-,-,-,-,-,-,-
2025-05-01 21:43:08.759,MovementStart,Unknown,0,Unknown,-,0,-,6,-,-,-,-,-,-,-,-,-,-,-,-,-,-,-,2.50,2.50,-,-,-,-,-,-,-,-,-,-,-,-,-,-,-,-,-,-,-,-,-,-,-,-,-,-,-,-,-,-,-,-,-,-,-,-,-,-
2025-05-01 21:43:08.859,MovementStep,Unknown,0,Unknown,-,0,Practice_HighLowRatio,6,1,1,-,-,Pending,-,-,-,-,-,197.243,197.343,0.100,True,1,2.50,2.50,1.50,2.50,-,-,0.100,True,-,-,-,-,-,-,-,-,-,-,-,-,-,-,-,-,-,-,-,-,-,-,-,-,-,-,-,-,-,-,-,-
2025-05-01 21:43:08.944,MovementStart,Unknown,0,Unknown,-,0,-,6,-,-,-,-,-,-,-,-,-,-,-,-,-,-,-,1.50,2.50,-,-,-,-,-,-,-,-,-,-,-,-,-,-,-,-,-,-,-,-,-,-,-,-,-,-,-,-,-,-,-,-,-,-,-,-,-,-
2025-05-01 21:43:09.044,MovementStep,Unknown,0,Unknown,-,0,Practice_HighLowRatio,6,1,1,-,-,Pending,-,-,-,-,-,197.428,197.528,0.100,True,1,1.50,2.50,0.50,2.50,-,-,0.100,True,-,-,-,-,-,-,-,-,-,-,-,-,-,-,-,-,-,-,-,-,-,-,-,-,-,-,-,-,-,-,-,-
2025-05-01 21:43:09.092,MovementStart,Unknown,0,Unknown,-,0,-,6,-,-,-,-,-,-,-,-,-,-,-,-,-,-,-,0.50,2.50,-,-,-,-,-,-,-,-,-,-,-,-,-,-,-,-,-,-,-,-,-,-,-,-,-,-,-,-,-,-,-,-,-,-,-,-,-,-
2025-05-01 21:43:09.192,MovementStep,Unknown,0,Unknown,-,0,Practice_HighLowRatio,6,1,1,-,-,Pending,-,-,-,-,-,197.576,197.676,0.100,True,1,0.50,2.50,-0.50,2.50,-,-,0.100,False,-,-,-,-,-,-,-,-,-,-,-,-,-,-,-,-,-,-,-,-,-,-,-,-,-,-,-,-,-,-,-,-
2025-05-01 21:43:09.258,MovementStart,Unknown,0,Unknown,-,0,-,6,-,-,-,-,-,-,-,-,-,-,-,-,-,-,-,-0.50,2.50,-,-,-,-,-,-,-,-,-,-,-,-,-,-,-,-,-,-,-,-,-,-,-,-,-,-,-,-,-,-,-,-,-,-,-,-,-,-
2025-05-01 21:43:09.359,MovementStep,Unknown,0,Unknown,-,0,Practice_HighLowRatio,6,1,1,-,-,Pending,-,-,-,-,-,197.742,197.843,0.100,True,1,-0.50,2.50,-1.50,2.50,-,-,0.100,False,-,-,-,-,-,-,-,-,-,-,-,-,-,-,-,-,-,-,-,-,-,-,-,-,-,-,-,-,-,-,-,-
2025-05-01 21:43:09.467,MovementStart,Unknown,0,Unknown,-,0,-,6,-,-,-,-,-,-,-,-,-,-,-,-,-,-,-,-1.50,2.50,-,-,-,-,-,-,-,-,-,-,-,-,-,-,-,-,-,-,-,-,-,-,-,-,-,-,-,-,-,-,-,-,-,-,-,-,-,-
2025-05-01 21:43:09.478,ScoreUpdate,Unknown,0,Unknown,True,0,-,6,-,-,-,-,-,-,10,0,50,-,-,-,-,-,-,-,-,-,-,-,-,-,-,-,-,-,-,-,-,-,-,-,-,-,-,-,-,-,-,-,-,-,-,-,-,-,-,-,-,-,-,-,-,-,-
2025-05-01 21:43:09.478,CollisionTime,Unknown,0,Unknown,True,0,-,6,-,-,-,-,-,-,-,-,-,0.717,-,-,-,-,-,-,-,-,-,-,-,-,-,-,-,-,-,-,-,-,-,-,-,-,-,-,-,-,-,-,-,-,-,-,-,-,-,-,-,-,-,-,-,-,-
2025-05-01 21:43:09.479,MovementDuration,Unknown,0,Unknown,-,-,-,6,-,-,-,-,Success,-,-,-,-,0.717,-,-,-,-,-,-,-,-,-,-,-,-,-,-,-,-,-,-,-,-,-,-,-,-,-,-,-,-,-,-,-,-,-,-,-,-,-,-,-,-,-,-,-,-,-
2025-05-01 21:43:09.481,DecisionOutcome,Unknown,0,Unknown,True,0,Practice_HighLowRatio,6,1,1,Work,0.886,Success,True,10,0,0,0.717,-,-,-,-,-,-,-,-,-,5,0.760:left|0.945:left|1.093:left|1.259:left|1.468:left,0.143,False,0.1,-,-,0.00,0.00,0,0,-,-,-,-,-,-,-,-,-,-,-,-,-,-,-,-,-,-,-,-,-,-,-,-,-
2025-05-01 21:43:09.482,MovementComplete,Unknown,0,Unknown,-,-,-,6,-,-,-,-,-,True,-,-,-,-,-,-,-,-,-,-,-,-,-,-,-,-,-,-,-,-,-,-,-,-,-,-,-,-,-,-,-,-,-,-,-,-,-,-,-,-,-,-,-,-,-,-,-,-,-
2025-05-01 21:43:09.482,RewardCollected,Unknown,0,Unknown,-,-,-,6,-,-,-,-,-,-,-,-,-,-,-,-,-,-,-,-,-,-,-,-,-,-,-,-,-,-,-,-,-,-,-,-,-,-,-,-,-,-,-,-,-,-,-,-,-,-,-,-,-,-,-,-,-,-,-
2025-05-01 21:43:09.483,OutcomeType,Unknown,0,Unknown,-,-,-,6,-,-,-,-,Success,-,-,-,-,-,-,-,-,-,-,-,-,-,-,-,-,-,-,-,-,-,-,-,-,-,-,-,-,-,-,-,-,-,-,-,-,-,-,-,-,-,-,-,-,-,-,-,-,-,-
2025-05-01 21:43:09.483,RewardCollected,Unknown,0,Unknown,-,-,-,6,-,-,-,-,-,-,-,-,-,-,-,-,-,-,-,-,-,-,-,-,-,-,-,-,-,-,-,-,-,-,-,-,-,-,-,-,-,-,-,-,-,-,-,-,-,-,-,-,-,-,-,-,-,-,-
2025-05-01 21:43:09.483,ButtonPresses,Unknown,0,Unknown,-,-,-,6,-,-,-,-,-,-,-,-,-,-,-,-,-,-,-,-,-,-,-,5,0.760:left|0.945:left|1.093:left|1.259:left|1.468:left,-,-,-,-,-,-,-,-,-,-,-,-,-,-,-,-,-,-,-,-,-,-,-,-,-,-,-,-,-,-,-,-,-,-
2025-05-01 21:43:09.567,MovementStep,Unknown,0,Unknown,-,0,Practice_HighLowRatio,6,1,1,-,-,Success,-,-,-,-,-,197.951,198.051,0.100,True,1,-1.50,2.50,-2.50,2.50,-,-,0.100,True,-,-,-,-,-,-,-,-,-,-,-,-,-,-,-,-,-,-,-,-,-,-,-,-,-,-,-,-,-,-,-,-
2025-05-01 21:43:13.228,InfoMessage,Unknown,0,Unknown,-,-,-,-,-,-,-,-,-,-,-,-,-,-,-,-,-,-,-,-,-,-,-,-,-,-,-,-,-,-,-,-,-,-,-,-,-,-,-,-,-,-,-,-,-,-,-,-,-,-,-,-,-,-,-,-,-,-,-
2025-05-01 21:43:15.137,PracticeTrialStart,Unknown,0,Unknown,True,0,-,7,-,-,-,-,-,-,-,-,-,-,-,-,-,-,-,-,-,-,-,-,-,-,-,-,-,-,-,-,-,-,-,-,-,-,-,-,-,-,-,-,-,-,-,-,-,-,-,-,-,-,-,-,-,-,-
2025-05-01 21:43:15.717,MovementStart,Unknown,0,Unknown,-,0,-,7,-,-,-,-,-,-,-,-,-,-,-,-,-,-,-,7.50,3.50,-,-,-,-,-,-,-,-,-,-,-,-,-,-,-,-,-,-,-,-,-,-,-,-,-,-,-,-,-,-,-,-,-,-,-,-,-,-
2025-05-01 21:43:15.817,MovementStep,Unknown,0,Unknown,-,0,Practice_HighLowRatio,7,1,1,-,-,Pending,-,-,-,-,-,203.576,203.676,0.100,True,1,7.50,3.50,6.50,3.50,-,-,0.100,False,-,-,-,-,-,-,-,-,-,-,-,-,-,-,-,-,-,-,-,-,-,-,-,-,-,-,-,-,-,-,-,-
2025-05-01 21:43:15.901,MovementStart,Unknown,0,Unknown,-,0,-,7,-,-,-,-,-,-,-,-,-,-,-,-,-,-,-,6.50,3.50,-,-,-,-,-,-,-,-,-,-,-,-,-,-,-,-,-,-,-,-,-,-,-,-,-,-,-,-,-,-,-,-,-,-,-,-,-,-
2025-05-01 21:43:16.002,MovementStep,Unknown,0,Unknown,-,0,Practice_HighLowRatio,7,1,1,-,-,Pending,-,-,-,-,-,203.760,203.860,0.100,True,1,6.50,3.50,5.50,3.50,-,-,0.100,False,-,-,-,-,-,-,-,-,-,-,-,-,-,-,-,-,-,-,-,-,-,-,-,-,-,-,-,-,-,-,-,-
2025-05-01 21:43:16.012,MovementStart,Unknown,0,Unknown,-,0,-,7,-,-,-,-,-,-,-,-,-,-,-,-,-,-,-,5.50,3.50,-,-,-,-,-,-,-,-,-,-,-,-,-,-,-,-,-,-,-,-,-,-,-,-,-,-,-,-,-,-,-,-,-,-,-,-,-,-
2025-05-01 21:43:16.111,MovementStep,Unknown,0,Unknown,-,0,Practice_HighLowRatio,7,1,1,-,-,Pending,-,-,-,-,-,203.870,203.970,0.100,True,1,5.50,3.50,4.50,3.50,-,-,0.100,True,-,-,-,-,-,-,-,-,-,-,-,-,-,-,-,-,-,-,-,-,-,-,-,-,-,-,-,-,-,-,-,-
2025-05-01 21:43:16.177,MovementStart,Unknown,0,Unknown,-,0,-,7,-,-,-,-,-,-,-,-,-,-,-,-,-,-,-,4.50,3.50,-,-,-,-,-,-,-,-,-,-,-,-,-,-,-,-,-,-,-,-,-,-,-,-,-,-,-,-,-,-,-,-,-,-,-,-,-,-
2025-05-01 21:43:16.277,MovementStep,Unknown,0,Unknown,-,0,Practice_HighLowRatio,7,1,1,-,-,Pending,-,-,-,-,-,204.036,204.136,0.100,True,1,4.50,3.50,3.50,3.50,-,-,0.100,True,-,-,-,-,-,-,-,-,-,-,-,-,-,-,-,-,-,-,-,-,-,-,-,-,-,-,-,-,-,-,-,-
2025-05-01 21:43:16.337,MovementStart,Unknown,0,Unknown,-,0,-,7,-,-,-,-,-,-,-,-,-,-,-,-,-,-,-,3.50,3.50,-,-,-,-,-,-,-,-,-,-,-,-,-,-,-,-,-,-,-,-,-,-,-,-,-,-,-,-,-,-,-,-,-,-,-,-,-,-
2025-05-01 21:43:16.362,ScoreUpdate,Unknown,0,Unknown,True,0,-,7,-,-,-,-,-,-,10,0,60,-,-,-,-,-,-,-,-,-,-,-,-,-,-,-,-,-,-,-,-,-,-,-,-,-,-,-,-,-,-,-,-,-,-,-,-,-,-,-,-,-,-,-,-,-,-
2025-05-01 21:43:16.363,CollisionTime,Unknown,0,Unknown,True,0,-,7,-,-,-,-,-,-,-,-,-,0.644,-,-,-,-,-,-,-,-,-,-,-,-,-,-,-,-,-,-,-,-,-,-,-,-,-,-,-,-,-,-,-,-,-,-,-,-,-,-,-,-,-,-,-,-,-
2025-05-01 21:43:16.363,MovementDuration,Unknown,0,Unknown,-,-,-,7,-,-,-,-,Success,-,-,-,-,0.644,-,-,-,-,-,-,-,-,-,-,-,-,-,-,-,-,-,-,-,-,-,-,-,-,-,-,-,-,-,-,-,-,-,-,-,-,-,-,-,-,-,-,-,-,-
2025-05-01 21:43:16.365,DecisionOutcome,Unknown,0,Unknown,True,0,Practice_HighLowRatio,7,1,1,Work,0.412,Success,True,10,0,0,0.644,-,-,-,-,-,-,-,-,-,5,0.473:left|0.657:left|0.767:left|0.933:left|1.093:left,0.129,False,0.1,-,-,0.00,0.00,0,0,-,-,-,-,-,-,-,-,-,-,-,-,-,-,-,-,-,-,-,-,-,-,-,-,-
2025-05-01 21:43:16.366,MovementComplete,Unknown,0,Unknown,-,-,-,7,-,-,-,-,-,True,-,-,-,-,-,-,-,-,-,-,-,-,-,-,-,-,-,-,-,-,-,-,-,-,-,-,-,-,-,-,-,-,-,-,-,-,-,-,-,-,-,-,-,-,-,-,-,-,-
2025-05-01 21:43:16.366,RewardCollected,Unknown,0,Unknown,-,-,-,7,-,-,-,-,-,-,-,-,-,-,-,-,-,-,-,-,-,-,-,-,-,-,-,-,-,-,-,-,-,-,-,-,-,-,-,-,-,-,-,-,-,-,-,-,-,-,-,-,-,-,-,-,-,-,-
2025-05-01 21:43:16.366,OutcomeType,Unknown,0,Unknown,-,-,-,7,-,-,-,-,Success,-,-,-,-,-,-,-,-,-,-,-,-,-,-,-,-,-,-,-,-,-,-,-,-,-,-,-,-,-,-,-,-,-,-,-,-,-,-,-,-,-,-,-,-,-,-,-,-,-,-
2025-05-01 21:43:16.367,RewardCollected,Unknown,0,Unknown,-,-,-,7,-,-,-,-,-,-,-,-,-,-,-,-,-,-,-,-,-,-,-,-,-,-,-,-,-,-,-,-,-,-,-,-,-,-,-,-,-,-,-,-,-,-,-,-,-,-,-,-,-,-,-,-,-,-,-
2025-05-01 21:43:16.367,ButtonPresses,Unknown,0,Unknown,-,-,-,7,-,-,-,-,-,-,-,-,-,-,-,-,-,-,-,-,-,-,-,5,0.473:left|0.657:left|0.767:left|0.933:left|1.093:left,-,-,-,-,-,-,-,-,-,-,-,-,-,-,-,-,-,-,-,-,-,-,-,-,-,-,-,-,-,-,-,-,-,-
2025-05-01 21:43:16.437,MovementStep,Unknown,0,Unknown,-,0,Practice_HighLowRatio,7,1,1,-,-,Success,-,-,-,-,-,204.196,204.296,0.100,True,1,3.50,3.50,2.50,3.50,-,-,0.100,False,-,-,-,-,-,-,-,-,-,-,-,-,-,-,-,-,-,-,-,-,-,-,-,-,-,-,-,-,-,-,-,-
2025-05-01 21:43:20.450,InfoMessage,Unknown,0,Unknown,-,-,-,-,-,-,-,-,-,-,-,-,-,-,-,-,-,-,-,-,-,-,-,-,-,-,-,-,-,-,-,-,-,-,-,-,-,-,-,-,-,-,-,-,-,-,-,-,-,-,-,-,-,-,-,-,-,-,-
2025-05-01 21:43:21.370,DecisionOutcome,Unknown,0,Unknown,True,0,Practice_HighLowRatio,8,1,1,Skip,0.929,Skip,False,0,0,0,0.000,-,-,-,-,-,-,-,-,-,0,-,-1.000,False,0.1,Skip,3,0.00,0.00,0,0,-,-,-,-,-,-,-,-,-,-,-,-,-,-,-,-,-,-,-,-,-,-,-,-,-
2025-05-01 21:43:21.372,ScoreUpdate,Unknown,0,Unknown,True,0,-,8,-,-,-,-,-,-,0,0,60,-,-,-,-,-,-,-,-,-,-,-,-,-,-,-,-,-,-,-,-,-,-,-,-,-,-,-,-,-,-,-,-,-,-,-,-,-,-,-,-,-,-,-,-,-,-
2025-05-01 21:43:24.705,InfoMessage,Unknown,0,Unknown,-,-,-,-,-,-,-,-,-,-,-,-,-,-,-,-,-,-,-,-,-,-,-,-,-,-,-,-,-,-,-,-,-,-,-,-,-,-,-,-,-,-,-,-,-,-,-,-,-,-,-,-,-,-,-,-,-,-,-
2025-05-01 21:44:31.372,InfoMessage,Unknown,0,Unknown,-,-,-,-,-,-,-,-,-,-,-,-,-,-,-,-,-,-,-,-,-,-,-,-,-,-,-,-,-,-,-,-,-,-,-,-,-,-,-,-,-,-,-,-,-,-,-,-,-,-,-,-,-,-,-,-,-,-,-
2025-05-01 21:44:33.637,PracticeTrialStart,Unknown,0,Unknown,True,0,-,1,-,-,-,-,-,-,-,-,-,-,-,-,-,-,-,-,-,-,-,-,-,-,-,-,-,-,-,-,-,-,-,-,-,-,-,-,-,-,-,-,-,-,-,-,-,-,-,-,-,-,-,-,-,-,-
2025-05-01 21:44:35.005,MovementStart,Unknown,0,Unknown,-,0,-,1,-,-,-,-,-,-,-,-,-,-,-,-,-,-,-,-0.50,-1.50,-,-,-,-,-,-,-,-,-,-,-,-,-,-,-,-,-,-,-,-,-,-,-,-,-,-,-,-,-,-,-,-,-,-,-,-,-,-
2025-05-01 21:44:35.102,MovementStep,Unknown,0,Unknown,-,0,Practice_LowHighRatio,1,2,3,-,-,Pending,-,-,-,-,-,280.800,281.232,0.432,True,3,-0.50,-1.50,-1.50,-1.50,-,-,0.144,False,-,-,-,-,-,-,-,-,-,-,-,-,-,-,-,-,-,-,-,-,-,-,-,-,-,-,-,-,-,-,-,-
2025-05-01 21:44:35.477,MovementStart,Unknown,0,Unknown,-,0,-,1,-,-,-,-,-,-,-,-,-,-,-,-,-,-,-,-1.50,-1.50,-,-,-,-,-,-,-,-,-,-,-,-,-,-,-,-,-,-,-,-,-,-,-,-,-,-,-,-,-,-,-,-,-,-,-,-,-,-
2025-05-01 21:44:35.574,MovementStep,Unknown,0,Unknown,-,0,Practice_LowHighRatio,1,2,3,-,-,Pending,-,-,-,-,-,281.302,281.704,0.402,True,3,-1.50,-1.50,-2.50,-1.50,-,-,0.134,False,-,-,-,-,-,-,-,-,-,-,-,-,-,-,-,-,-,-,-,-,-,-,-,-,-,-,-,-,-,-,-,-
2025-05-01 21:44:35.938,MovementStart,Unknown,0,Unknown,-,0,-,1,-,-,-,-,-,-,-,-,-,-,-,-,-,-,-,-2.50,-1.50,-,-,-,-,-,-,-,-,-,-,-,-,-,-,-,-,-,-,-,-,-,-,-,-,-,-,-,-,-,-,-,-,-,-,-,-,-,-
2025-05-01 21:44:36.037,MovementStep,Unknown,0,Unknown,-,0,Practice_LowHighRatio,1,2,3,-,-,Pending,-,-,-,-,-,281.758,282.167,0.409,True,3,-2.50,-1.50,-3.50,-1.50,-,-,0.136,False,-,-,-,-,-,-,-,-,-,-,-,-,-,-,-,-,-,-,-,-,-,-,-,-,-,-,-,-,-,-,-,-
2025-05-01 21:44:36.389,MovementStart,Unknown,0,Unknown,-,0,-,1,-,-,-,-,-,-,-,-,-,-,-,-,-,-,-,-3.50,-1.50,-,-,-,-,-,-,-,-,-,-,-,-,-,-,-,-,-,-,-,-,-,-,-,-,-,-,-,-,-,-,-,-,-,-,-,-,-,-
2025-05-01 21:44:36.489,MovementStep,Unknown,0,Unknown,-,0,Practice_LowHighRatio,1,2,3,-,-,Pending,-,-,-,-,-,282.209,282.619,0.410,True,3,-3.50,-1.50,-4.50,-1.50,-,-,0.137,False,-,-,-,-,-,-,-,-,-,-,-,-,-,-,-,-,-,-,-,-,-,-,-,-,-,-,-,-,-,-,-,-
2025-05-01 21:44:36.930,MovementStart,Unknown,0,Unknown,-,0,-,1,-,-,-,-,-,-,-,-,-,-,-,-,-,-,-,-4.50,-1.50,-,-,-,-,-,-,-,-,-,-,-,-,-,-,-,-,-,-,-,-,-,-,-,-,-,-,-,-,-,-,-,-,-,-,-,-,-,-
2025-05-01 21:44:36.952,ScoreUpdate,Unknown,0,Unknown,True,0,-,1,-,-,-,-,-,-,10,0,70,-,-,-,-,-,-,-,-,-,-,-,-,-,-,-,-,-,-,-,-,-,-,-,-,-,-,-,-,-,-,-,-,-,-,-,-,-,-,-,-,-,-,-,-,-,-
2025-05-01 21:44:36.952,CollisionTime,Unknown,0,Unknown,True,0,-,1,-,-,-,-,-,-,-,-,-,2.280,-,-,-,-,-,-,-,-,-,-,-,-,-,-,-,-,-,-,-,-,-,-,-,-,-,-,-,-,-,-,-,-,-,-,-,-,-,-,-,-,-,-,-,-,-
2025-05-01 21:44:36.953,MovementDuration,Unknown,0,Unknown,-,-,-,1,-,-,-,-,Success,-,-,-,-,2.280,-,-,-,-,-,-,-,-,-,-,-,-,-,-,-,-,-,-,-,-,-,-,-,-,-,-,-,-,-,-,-,-,-,-,-,-,-,-,-,-,-,-,-,-,-
2025-05-01 21:44:36.955,DecisionOutcome,Unknown,0,Unknown,True,0,Practice_LowHighRatio,1,2,3,Work,0.744,Success,True,10,0,0,2.280,-,-,-,-,-,-,-,-,-,15,0.922:left|1.105:left|1.258:left|1.425:left|1.574:left|1.729:left|1.881:left|2.026:left|2.190:left|2.331:left|2.490:left|2.641:left|2.820:left|2.992:left|3.183:left,0.152,False,0.1,-,-,0.00,0.00,0,0,-,-,-,-,-,-,-,-,-,-,-,-,-,-,-,-,-,-,-,-,-,-,-,-,-
2025-05-01 21:44:36.955,MovementComplete,Unknown,0,Unknown,-,-,-,1,-,-,-,-,-,True,-,-,-,-,-,-,-,-,-,-,-,-,-,-,-,-,-,-,-,-,-,-,-,-,-,-,-,-,-,-,-,-,-,-,-,-,-,-,-,-,-,-,-,-,-,-,-,-,-
2025-05-01 21:44:36.956,RewardCollected,Unknown,0,Unknown,-,-,-,1,-,-,-,-,-,-,-,-,-,-,-,-,-,-,-,-,-,-,-,-,-,-,-,-,-,-,-,-,-,-,-,-,-,-,-,-,-,-,-,-,-,-,-,-,-,-,-,-,-,-,-,-,-,-,-
2025-05-01 21:44:36.956,OutcomeType,Unknown,0,Unknown,-,-,-,1,-,-,-,-,Success,-,-,-,-,-,-,-,-,-,-,-,-,-,-,-,-,-,-,-,-,-,-,-,-,-,-,-,-,-,-,-,-,-,-,-,-,-,-,-,-,-,-,-,-,-,-,-,-,-,-
2025-05-01 21:44:36.956,RewardCollected,Unknown,0,Unknown,-,-,-,1,-,-,-,-,-,-,-,-,-,-,-,-,-,-,-,-,-,-,-,-,-,-,-,-,-,-,-,-,-,-,-,-,-,-,-,-,-,-,-,-,-,-,-,-,-,-,-,-,-,-,-,-,-,-,-
2025-05-01 21:44:36.957,ButtonPresses,Unknown,0,Unknown,-,-,-,1,-,-,-,-,-,-,-,-,-,-,-,-,-,-,-,-,-,-,-,15,0.922:left|1.105:left|1.258:left|1.425:left|1.574:left|1.729:left|1.881:left|2.026:left|2.190:left|2.331:left|2.490:left|2.641:left|2.820:left|2.992:left|3.183:left,-,-,-,-,-,-,-,-,-,-,-,-,-,-,-,-,-,-,-,-,-,-,-,-,-,-,-,-,-,-,-,-,-,-
2025-05-01 21:44:37.031,MovementStep,Unknown,0,Unknown,-,0,Practice_LowHighRatio,1,2,3,-,-,Success,-,-,-,-,-,282.698,283.161,0.463,True,3,-4.50,-1.50,-5.50,-1.50,-,-,0.154,False,-,-,-,-,-,-,-,-,-,-,-,-,-,-,-,-,-,-,-,-,-,-,-,-,-,-,-,-,-,-,-,-
2025-05-01 21:44:38.952,InfoMessage,Unknown,0,Unknown,-,-,-,-,-,-,-,-,-,-,-,-,-,-,-,-,-,-,-,-,-,-,-,-,-,-,-,-,-,-,-,-,-,-,-,-,-,-,-,-,-,-,-,-,-,-,-,-,-,-,-,-,-,-,-,-,-,-,-
2025-05-01 21:44:41.185,PracticeTrialStart,Unknown,0,Unknown,True,0,-,2,-,-,-,-,-,-,-,-,-,-,-,-,-,-,-,-,-,-,-,-,-,-,-,-,-,-,-,-,-,-,-,-,-,-,-,-,-,-,-,-,-,-,-,-,-,-,-,-,-,-,-,-,-,-,-
2025-05-01 21:44:42.754,MovementStart,Unknown,0,Unknown,-,0,-,2,-,-,-,-,-,-,-,-,-,-,-,-,-,-,-,-0.50,-3.50,-,-,-,-,-,-,-,-,-,-,-,-,-,-,-,-,-,-,-,-,-,-,-,-,-,-,-,-,-,-,-,-,-,-,-,-,-,-
2025-05-01 21:44:42.855,MovementStep,Unknown,0,Unknown,-,0,Practice_LowHighRatio,2,3,5,-,-,Pending,-,-,-,-,-,287.646,288.385,0.739,True,5,-0.50,-3.50,0.50,-3.50,-,-,0.148,False,-,-,-,-,-,-,-,-,-,-,-,-,-,-,-,-,-,-,-,-,-,-,-,-,-,-,-,-,-,-,-,-
2025-05-01 21:44:43.530,MovementStart,Unknown,0,Unknown,-,0,-,2,-,-,-,-,-,-,-,-,-,-,-,-,-,-,-,0.50,-3.50,-,-,-,-,-,-,-,-,-,-,-,-,-,-,-,-,-,-,-,-,-,-,-,-,-,-,-,-,-,-,-,-,-,-,-,-,-,-
2025-05-01 21:44:43.630,MovementStep,Unknown,0,Unknown,-,0,Practice_LowHighRatio,2,3,5,-,-,Pending,-,-,-,-,-,288.439,289.160,0.721,True,5,0.50,-3.50,1.50,-3.50,-,-,0.144,False,-,-,-,-,-,-,-,-,-,-,-,-,-,-,-,-,-,-,-,-,-,-,-,-,-,-,-,-,-,-,-,-
2025-05-01 21:44:44.287,MovementStart,Unknown,0,Unknown,-,0,-,2,-,-,-,-,-,-,-,-,-,-,-,-,-,-,-,1.50,-3.50,-,-,-,-,-,-,-,-,-,-,-,-,-,-,-,-,-,-,-,-,-,-,-,-,-,-,-,-,-,-,-,-,-,-,-,-,-,-
2025-05-01 21:44:44.387,MovementStep,Unknown,0,Unknown,-,0,Practice_LowHighRatio,2,3,5,-,-,Pending,-,-,-,-,-,289.218,289.917,0.699,True,5,1.50,-3.50,2.50,-3.50,-,-,0.140,False,-,-,-,-,-,-,-,-,-,-,-,-,-,-,-,-,-,-,-,-,-,-,-,-,-,-,-,-,-,-,-,-
2025-05-01 21:44:45.031,MovementStart,Unknown,0,Unknown,-,0,-,2,-,-,-,-,-,-,-,-,-,-,-,-,-,-,-,2.50,-3.50,-,-,-,-,-,-,-,-,-,-,-,-,-,-,-,-,-,-,-,-,-,-,-,-,-,-,-,-,-,-,-,-,-,-,-,-,-,-
2025-05-01 21:44:45.131,MovementStep,Unknown,0,Unknown,-,0,Practice_LowHighRatio,2,3,5,-,-,Pending,-,-,-,-,-,289.970,290.661,0.691,True,5,2.50,-3.50,3.50,-3.50,-,-,0.138,False,-,-,-,-,-,-,-,-,-,-,-,-,-,-,-,-,-,-,-,-,-,-,-,-,-,-,-,-,-,-,-,-
2025-05-01 21:44:45.829,MovementStart,Unknown,0,Unknown,-,0,-,2,-,-,-,-,-,-,-,-,-,-,-,-,-,-,-,3.50,-3.50,-,-,-,-,-,-,-,-,-,-,-,-,-,-,-,-,-,-,-,-,-,-,-,-,-,-,-,-,-,-,-,-,-,-,-,-,-,-
2025-05-01 21:44:45.851,ScoreUpdate,Unknown,0,Unknown,True,0,-,2,-,-,-,-,-,-,10,0,80,-,-,-,-,-,-,-,-,-,-,-,-,-,-,-,-,-,-,-,-,-,-,-,-,-,-,-,-,-,-,-,-,-,-,-,-,-,-,-,-,-,-,-,-,-,-
2025-05-01 21:44:45.851,CollisionTime,Unknown,0,Unknown,True,0,-,2,-,-,-,-,-,-,-,-,-,3.734,-,-,-,-,-,-,-,-,-,-,-,-,-,-,-,-,-,-,-,-,-,-,-,-,-,-,-,-,-,-,-,-,-,-,-,-,-,-,-,-,-,-,-,-,-
2025-05-01 21:44:45.852,MovementDuration,Unknown,0,Unknown,-,-,-,2,-,-,-,-,Success,-,-,-,-,3.734,-,-,-,-,-,-,-,-,-,-,-,-,-,-,-,-,-,-,-,-,-,-,-,-,-,-,-,-,-,-,-,-,-,-,-,-,-,-,-,-,-,-,-,-,-
2025-05-01 21:44:45.854,DecisionOutcome,Unknown,0,Unknown,True,0,Practice_LowHighRatio,2,3,5,Work,0.733,Success,True,10,0,0,3.734,-,-,-,-,-,-,-,-,-,25,0.824:right|1.003:right|1.154:right|1.304:right|1.462:right|1.617:right|1.771:right|1.927:right|2.086:right|2.238:right|2.396:right|2.541:right|2.698:right|2.849:right|2.995:right|3.147:right|3.302:right|3.466:right|3.613:right|3.739:right|3.905:right|4.066:right|4.224:right|4.383:right|4.538:right,0.149,False,0.1,-,-,0.00,0.00,0,0,-,-,-,-,-,-,-,-,-,-,-,-,-,-,-,-,-,-,-,-,-,-,-,-,-
2025-05-01 21:44:45.854,MovementComplete,Unknown,0,Unknown,-,-,-,2,-,-,-,-,-,True,-,-,-,-,-,-,-,-,-,-,-,-,-,-,-,-,-,-,-,-,-,-,-,-,-,-,-,-,-,-,-,-,-,-,-,-,-,-,-,-,-,-,-,-,-,-,-,-,-
2025-05-01 21:44:45.855,RewardCollected,Unknown,0,Unknown,-,-,-,2,-,-,-,-,-,-,-,-,-,-,-,-,-,-,-,-,-,-,-,-,-,-,-,-,-,-,-,-,-,-,-,-,-,-,-,-,-,-,-,-,-,-,-,-,-,-,-,-,-,-,-,-,-,-,-
2025-05-01 21:44:45.855,OutcomeType,Unknown,0,Unknown,-,-,-,2,-,-,-,-,Success,-,-,-,-,-,-,-,-,-,-,-,-,-,-,-,-,-,-,-,-,-,-,-,-,-,-,-,-,-,-,-,-,-,-,-,-,-,-,-,-,-,-,-,-,-,-,-,-,-,-
2025-05-01 21:44:45.856,RewardCollected,Unknown,0,Unknown,-,-,-,2,-,-,-,-,-,-,-,-,-,-,-,-,-,-,-,-,-,-,-,-,-,-,-,-,-,-,-,-,-,-,-,-,-,-,-,-,-,-,-,-,-,-,-,-,-,-,-,-,-,-,-,-,-,-,-
2025-05-01 21:44:45.856,ButtonPresses,Unknown,0,Unknown,-,-,-,2,-,-,-,-,-,-,-,-,-,-,-,-,-,-,-,-,-,-,-,25,0.824:right|1.003:right|1.154:right|1.304:right|1.462:right|1.617:right|1.771:right|1.927:right|2.086:right|2.238:right|2.396:right|2.541:right|2.698:right|2.849:right|2.995:right|3.147:right|3.302:right|3.466:right|3.613:right|3.739:right|3.905:right|4.066:right|4.224:right|4.383:right|4.538:right,-,-,-,-,-,-,-,-,-,-,-,-,-,-,-,-,-,-,-,-,-,-,-,-,-,-,-,-,-,-,-,-,-,-
2025-05-01 21:44:45.930,MovementStep,Unknown,0,Unknown,-,0,Practice_LowHighRatio,2,3,5,-,-,Success,-,-,-,-,-,290.727,291.460,0.733,True,5,3.50,-3.50,4.50,-3.50,-,-,0.147,False,-,-,-,-,-,-,-,-,-,-,-,-,-,-,-,-,-,-,-,-,-,-,-,-,-,-,-,-,-,-,-,-
2025-05-01 21:44:46.485,InfoMessage,Unknown,0,Unknown,-,-,-,-,-,-,-,-,-,-,-,-,-,-,-,-,-,-,-,-,-,-,-,-,-,-,-,-,-,-,-,-,-,-,-,-,-,-,-,-,-,-,-,-,-,-,-,-,-,-,-,-,-,-,-,-,-,-,-
2025-05-01 21:44:48.193,DecisionOutcome,Unknown,0,Unknown,True,0,Practice_LowHighRatio,3,3,5,Skip,1.716,Skip,False,0,0,0,0.000,-,-,-,-,-,-,-,-,-,0,-,-1.000,False,0.1,Skip,3,0.00,0.00,0,0,-,-,-,-,-,-,-,-,-,-,-,-,-,-,-,-,-,-,-,-,-,-,-,-,-
2025-05-01 21:44:48.194,ScoreUpdate,Unknown,0,Unknown,True,0,-,3,-,-,-,-,-,-,0,0,80,-,-,-,-,-,-,-,-,-,-,-,-,-,-,-,-,-,-,-,-,-,-,-,-,-,-,-,-,-,-,-,-,-,-,-,-,-,-,-,-,-,-,-,-,-,-
2025-05-01 21:44:51.400,InfoMessage,Unknown,0,Unknown,-,-,-,-,-,-,-,-,-,-,-,-,-,-,-,-,-,-,-,-,-,-,-,-,-,-,-,-,-,-,-,-,-,-,-,-,-,-,-,-,-,-,-,-,-,-,-,-,-,-,-,-,-,-,-,-,-,-,-
2025-05-01 21:44:51.859,DecisionOutcome,Unknown,0,Unknown,True,0,Practice_LowHighRatio,4,2,3,Skip,0.470,Skip,False,0,0,0,0.000,-,-,-,-,-,-,-,-,-,0,-,-1.000,False,0.1,Skip,3,0.00,0.00,0,0,-,-,-,-,-,-,-,-,-,-,-,-,-,-,-,-,-,-,-,-,-,-,-,-,-
2025-05-01 21:44:51.861,ScoreUpdate,Unknown,0,Unknown,True,0,-,4,-,-,-,-,-,-,0,0,80,-,-,-,-,-,-,-,-,-,-,-,-,-,-,-,-,-,-,-,-,-,-,-,-,-,-,-,-,-,-,-,-,-,-,-,-,-,-,-,-,-,-,-,-,-,-
2025-05-01 21:44:55.064,InfoMessage,Unknown,0,Unknown,-,-,-,-,-,-,-,-,-,-,-,-,-,-,-,-,-,-,-,-,-,-,-,-,-,-,-,-,-,-,-,-,-,-,-,-,-,-,-,-,-,-,-,-,-,-,-,-,-,-,-,-,-,-,-,-,-,-,-
2025-05-01 21:44:55.629,DecisionOutcome,Unknown,0,Unknown,True,0,Practice_LowHighRatio,5,3,5,Skip,0.575,Skip,False,0,0,0,0.000,-,-,-,-,-,-,-,-,-,0,-,-1.000,False,0.1,Skip,3,0.00,0.00,0,0,-,-,-,-,-,-,-,-,-,-,-,-,-,-,-,-,-,-,-,-,-,-,-,-,-
2025-05-01 21:44:55.630,ScoreUpdate,Unknown,0,Unknown,True,0,-,5,-,-,-,-,-,-,0,0,80,-,-,-,-,-,-,-,-,-,-,-,-,-,-,-,-,-,-,-,-,-,-,-,-,-,-,-,-,-,-,-,-,-,-,-,-,-,-,-,-,-,-,-,-,-,-
2025-05-01 21:44:58.840,InfoMessage,Unknown,0,Unknown,-,-,-,-,-,-,-,-,-,-,-,-,-,-,-,-,-,-,-,-,-,-,-,-,-,-,-,-,-,-,-,-,-,-,-,-,-,-,-,-,-,-,-,-,-,-,-,-,-,-,-,-,-,-,-,-,-,-,-
2025-05-01 21:45:01.002,PracticeTrialStart,Unknown,0,Unknown,True,0,-,6,-,-,-,-,-,-,-,-,-,-,-,-,-,-,-,-,-,-,-,-,-,-,-,-,-,-,-,-,-,-,-,-,-,-,-,-,-,-,-,-,-,-,-,-,-,-,-,-,-,-,-,-,-,-,-
2025-05-01 21:45:01.724,MovementStart,Unknown,0,Unknown,-,0,-,6,-,-,-,-,-,-,-,-,-,-,-,-,-,-,-,6.50,-2.50,-,-,-,-,-,-,-,-,-,-,-,-,-,-,-,-,-,-,-,-,-,-,-,-,-,-,-,-,-,-,-,-,-,-,-,-,-,-
2025-05-01 21:45:01.825,MovementStep,Unknown,0,Unknown,-,0,Practice_LowHighRatio,6,1,1,-,-,Pending,-,-,-,-,-,306.079,306.180,0.101,True,1,6.50,-2.50,5.50,-2.50,-,-,0.101,False,-,-,-,-,-,-,-,-,-,-,-,-,-,-,-,-,-,-,-,-,-,-,-,-,-,-,-,-,-,-,-,-
2025-05-01 21:45:01.899,MovementStart,Unknown,0,Unknown,-,0,-,6,-,-,-,-,-,-,-,-,-,-,-,-,-,-,-,5.50,-2.50,-,-,-,-,-,-,-,-,-,-,-,-,-,-,-,-,-,-,-,-,-,-,-,-,-,-,-,-,-,-,-,-,-,-,-,-,-,-
2025-05-01 21:45:02.000,MovementStep,Unknown,0,Unknown,-,0,Practice_LowHighRatio,6,1,1,-,-,Pending,-,-,-,-,-,306.254,306.355,0.100,True,1,5.50,-2.50,4.50,-2.50,-,-,0.100,False,-,-,-,-,-,-,-,-,-,-,-,-,-,-,-,-,-,-,-,-,-,-,-,-,-,-,-,-,-,-,-,-
2025-05-01 21:45:02.040,MovementStart,Unknown,0,Unknown,-,0,-,6,-,-,-,-,-,-,-,-,-,-,-,-,-,-,-,4.50,-2.50,-,-,-,-,-,-,-,-,-,-,-,-,-,-,-,-,-,-,-,-,-,-,-,-,-,-,-,-,-,-,-,-,-,-,-,-,-,-
2025-05-01 21:45:02.142,MovementStep,Unknown,0,Unknown,-,0,Practice_LowHighRatio,6,1,1,-,-,Pending,-,-,-,-,-,306.395,306.497,0.102,True,1,4.50,-2.50,3.50,-2.50,-,-,0.102,False,-,-,-,-,-,-,-,-,-,-,-,-,-,-,-,-,-,-,-,-,-,-,-,-,-,-,-,-,-,-,-,-
2025-05-01 21:45:02.182,MovementStart,Unknown,0,Unknown,-,0,-,6,-,-,-,-,-,-,-,-,-,-,-,-,-,-,-,3.50,-2.50,-,-,-,-,-,-,-,-,-,-,-,-,-,-,-,-,-,-,-,-,-,-,-,-,-,-,-,-,-,-,-,-,-,-,-,-,-,-
2025-05-01 21:45:02.281,MovementStep,Unknown,0,Unknown,-,0,Practice_LowHighRatio,6,1,1,-,-,Pending,-,-,-,-,-,306.537,306.636,0.099,True,1,3.51,-2.50,2.50,-2.50,-,-,0.099,True,-,-,-,-,-,-,-,-,-,-,-,-,-,-,-,-,-,-,-,-,-,-,-,-,-,-,-,-,-,-,-,-
2025-05-01 21:45:02.319,MovementStart,Unknown,0,Unknown,-,0,-,6,-,-,-,-,-,-,-,-,-,-,-,-,-,-,-,2.50,-2.50,-,-,-,-,-,-,-,-,-,-,-,-,-,-,-,-,-,-,-,-,-,-,-,-,-,-,-,-,-,-,-,-,-,-,-,-,-,-
2025-05-01 21:45:02.347,ScoreUpdate,Unknown,0,Unknown,True,0,-,6,-,-,-,-,-,-,10,0,90,-,-,-,-,-,-,-,-,-,-,-,-,-,-,-,-,-,-,-,-,-,-,-,-,-,-,-,-,-,-,-,-,-,-,-,-,-,-,-,-,-,-,-,-,-,-
2025-05-01 21:45:02.347,CollisionTime,Unknown,0,Unknown,True,0,-,6,-,-,-,-,-,-,-,-,-,0.621,-,-,-,-,-,-,-,-,-,-,-,-,-,-,-,-,-,-,-,-,-,-,-,-,-,-,-,-,-,-,-,-,-,-,-,-,-,-,-,-,-,-,-,-,-
2025-05-01 21:45:02.348,MovementDuration,Unknown,0,Unknown,-,-,-,6,-,-,-,-,Success,-,-,-,-,0.621,-,-,-,-,-,-,-,-,-,-,-,-,-,-,-,-,-,-,-,-,-,-,-,-,-,-,-,-,-,-,-,-,-,-,-,-,-,-,-,-,-,-,-,-,-
2025-05-01 21:45:02.350,DecisionOutcome,Unknown,0,Unknown,True,0,Practice_LowHighRatio,6,1,1,Work,0.654,Success,True,10,0,0,0.621,-,-,-,-,-,-,-,-,-,5,0.612:left|0.787:left|0.928:left|1.070:left|1.207:left,0.124,False,0.1,-,-,0.00,0.00,0,0,-,-,-,-,-,-,-,-,-,-,-,-,-,-,-,-,-,-,-,-,-,-,-,-,-
2025-05-01 21:45:02.350,MovementComplete,Unknown,0,Unknown,-,-,-,6,-,-,-,-,-,True,-,-,-,-,-,-,-,-,-,-,-,-,-,-,-,-,-,-,-,-,-,-,-,-,-,-,-,-,-,-,-,-,-,-,-,-,-,-,-,-,-,-,-,-,-,-,-,-,-
2025-05-01 21:45:02.351,RewardCollected,Unknown,0,Unknown,-,-,-,6,-,-,-,-,-,-,-,-,-,-,-,-,-,-,-,-,-,-,-,-,-,-,-,-,-,-,-,-,-,-,-,-,-,-,-,-,-,-,-,-,-,-,-,-,-,-,-,-,-,-,-,-,-,-,-
2025-05-01 21:45:02.351,OutcomeType,Unknown,0,Unknown,-,-,-,6,-,-,-,-,Success,-,-,-,-,-,-,-,-,-,-,-,-,-,-,-,-,-,-,-,-,-,-,-,-,-,-,-,-,-,-,-,-,-,-,-,-,-,-,-,-,-,-,-,-,-,-,-,-,-,-
2025-05-01 21:45:02.351,RewardCollected,Unknown,0,Unknown,-,-,-,6,-,-,-,-,-,-,-,-,-,-,-,-,-,-,-,-,-,-,-,-,-,-,-,-,-,-,-,-,-,-,-,-,-,-,-,-,-,-,-,-,-,-,-,-,-,-,-,-,-,-,-,-,-,-,-
2025-05-01 21:45:02.352,ButtonPresses,Unknown,0,Unknown,-,-,-,6,-,-,-,-,-,-,-,-,-,-,-,-,-,-,-,-,-,-,-,5,0.612:left|0.787:left|0.928:left|1.070:left|1.207:left,-,-,-,-,-,-,-,-,-,-,-,-,-,-,-,-,-,-,-,-,-,-,-,-,-,-,-,-,-,-,-,-,-,-
2025-05-01 21:45:02.419,MovementStep,Unknown,0,Unknown,-,0,Practice_LowHighRatio,6,1,1,-,-,Success,-,-,-,-,-,306.674,306.774,0.100,True,1,2.50,-2.50,1.50,-2.50,-,-,0.100,False,-,-,-,-,-,-,-,-,-,-,-,-,-,-,-,-,-,-,-,-,-,-,-,-,-,-,-,-,-,-,-,-
2025-05-01 21:45:06.331,InfoMessage,Unknown,0,Unknown,-,-,-,-,-,-,-,-,-,-,-,-,-,-,-,-,-,-,-,-,-,-,-,-,-,-,-,-,-,-,-,-,-,-,-,-,-,-,-,-,-,-,-,-,-,-,-,-,-,-,-,-,-,-,-,-,-,-,-
2025-05-01 21:45:07.079,DecisionOutcome,Unknown,0,Unknown,True,0,Practice_LowHighRatio,7,2,3,Skip,0.755,Skip,False,0,0,0,0.000,-,-,-,-,-,-,-,-,-,0,-,-1.000,False,0.1,Skip,3,0.00,0.00,0,0,-,-,-,-,-,-,-,-,-,-,-,-,-,-,-,-,-,-,-,-,-,-,-,-,-
2025-05-01 21:45:07.081,ScoreUpdate,Unknown,0,Unknown,True,0,-,7,-,-,-,-,-,-,0,0,90,-,-,-,-,-,-,-,-,-,-,-,-,-,-,-,-,-,-,-,-,-,-,-,-,-,-,-,-,-,-,-,-,-,-,-,-,-,-,-,-,-,-,-,-,-,-
2025-05-01 21:45:10.283,InfoMessage,Unknown,0,Unknown,-,-,-,-,-,-,-,-,-,-,-,-,-,-,-,-,-,-,-,-,-,-,-,-,-,-,-,-,-,-,-,-,-,-,-,-,-,-,-,-,-,-,-,-,-,-,-,-,-,-,-,-,-,-,-,-,-,-,-
2025-05-01 21:45:10.815,DecisionOutcome,Unknown,0,Unknown,True,0,Practice_LowHighRatio,8,3,5,Skip,0.541,Skip,False,0,0,0,0.000,-,-,-,-,-,-,-,-,-,0,-,-1.000,False,0.1,Skip,3,0.00,0.00,0,0,-,-,-,-,-,-,-,-,-,-,-,-,-,-,-,-,-,-,-,-,-,-,-,-,-
2025-05-01 21:45:10.817,ScoreUpdate,Unknown,0,Unknown,True,0,-,8,-,-,-,-,-,-,0,0,90,-,-,-,-,-,-,-,-,-,-,-,-,-,-,-,-,-,-,-,-,-,-,-,-,-,-,-,-,-,-,-,-,-,-,-,-,-,-,-,-,-,-,-,-,-,-
2025-05-01 21:45:14.018,InfoMessage,Unknown,0,Unknown,-,-,-,-,-,-,-,-,-,-,-,-,-,-,-,-,-,-,-,-,-,-,-,-,-,-,-,-,-,-,-,-,-,-,-,-,-,-,-,-,-,-,-,-,-,-,-,-,-,-,-,-,-,-,-,-,-,-,-
2025-05-01 21:45:15.960,PracticeTrialStart,Unknown,0,Unknown,True,0,-,9,-,-,-,-,-,-,-,-,-,-,-,-,-,-,-,-,-,-,-,-,-,-,-,-,-,-,-,-,-,-,-,-,-,-,-,-,-,-,-,-,-,-,-,-,-,-,-,-,-,-,-,-,-,-,-
2025-05-01 21:45:18.040,MovementStart,Unknown,0,Unknown,-,0,-,9,-,-,-,-,-,-,-,-,-,-,-,-,-,-,-,-2.50,1.50,-,-,-,-,-,-,-,-,-,-,-,-,-,-,-,-,-,-,-,-,-,-,-,-,-,-,-,-,-,-,-,-,-,-,-,-,-,-
2025-05-01 21:45:18.140,MovementStep,Unknown,0,Unknown,-,0,Practice_LowHighRatio,9,3,5,-,-,Pending,-,-,-,-,-,320.672,321.508,0.836,True,5,-2.50,1.50,-3.50,1.50,-,-,0.167,False,-,-,-,-,-,-,-,-,-,-,-,-,-,-,-,-,-,-,-,-,-,-,-,-,-,-,-,-,-,-,-,-
2025-05-01 21:45:19.015,MovementStart,Unknown,0,Unknown,-,0,-,9,-,-,-,-,-,-,-,-,-,-,-,-,-,-,-,-3.50,1.50,-,-,-,-,-,-,-,-,-,-,-,-,-,-,-,-,-,-,-,-,-,-,-,-,-,-,-,-,-,-,-,-,-,-,-,-,-,-
2025-05-01 21:45:19.115,MovementStep,Unknown,0,Unknown,-,0,Practice_LowHighRatio,9,3,5,-,-,Pending,-,-,-,-,-,321.588,322.484,0.895,True,5,-3.50,1.50,-4.50,1.50,-,-,0.179,False,-,-,-,-,-,-,-,-,-,-,-,-,-,-,-,-,-,-,-,-,-,-,-,-,-,-,-,-,-,-,-,-
2025-05-01 21:45:21.051,MovementDuration,Unknown,0,Unknown,-,-,-,9,-,-,-,-,Failure,-,-,-,-,3.747,-,-,-,-,-,-,-,-,-,-,-,-,-,-,-,-,-,-,-,-,-,-,-,-,-,-,-,-,-,-,-,-,-,-,-,-,-,-,-,-,-,-,-,-,-
2025-05-01 21:45:21.051,OutcomeType,Unknown,0,Unknown,-,-,-,9,-,-,-,-,Failure,-,-,-,-,-,-,-,-,-,-,-,-,-,-,-,-,-,-,-,-,-,-,-,-,-,-,-,-,-,-,-,-,-,-,-,-,-,-,-,-,-,-,-,-,-,-,-,-,-,-
2025-05-01 21:45:21.052,RewardCollected,Unknown,0,Unknown,-,-,-,9,-,-,-,-,-,-,-,-,-,-,-,-,-,-,-,-,-,-,-,-,-,-,-,-,-,-,-,-,-,-,-,-,-,-,-,-,-,-,-,-,-,-,-,-,-,-,-,-,-,-,-,-,-,-,-
2025-05-01 21:45:21.052,ButtonPresses,Unknown,0,Unknown,-,-,-,9,-,-,-,-,-,-,-,-,-,-,-,-,-,-,-,-,-,-,-,11,1.236:left|1.450:left|1.612:left|1.790:left|1.972:left|2.152:left|2.341:left|2.540:left|2.750:left|2.948:left|3.214:left,-,-,-,-,-,-,-,-,-,-,-,-,-,-,-,-,-,-,-,-,-,-,-,-,-,-,-,-,-,-,-,-,-,-
2025-05-01 21:45:21.054,DecisionOutcome,Unknown,0,Unknown,True,0,Practice_LowHighRatio,9,3,5,Work,0.446,Failure,False,0,0,0,3.747,-,-,-,-,-,-,-,-,-,11,1.236:left|1.450:left|1.612:left|1.790:left|1.972:left|2.152:left|2.341:left|2.540:left|2.750:left|2.948:left|3.214:left,0.341,False,0.1,-,-,0.00,0.00,0,0,-,-,-,-,-,-,-,-,-,-,-,-,-,-,-,-,-,-,-,-,-,-,-,-,-
2025-05-01 21:45:21.055,ButtonPresses,Unknown,0,Unknown,-,-,-,9,-,-,-,-,-,-,-,-,-,-,-,-,-,-,-,-,-,-,-,11,1.236:left|1.450:left|1.612:left|1.790:left|1.972:left|2.152:left|2.341:left|2.540:left|2.750:left|2.948:left|3.214:left,-,-,-,-,-,-,-,-,-,-,-,-,-,-,-,-,-,-,-,-,-,-,-,-,-,-,-,-,-,-,-,-,-,-
2025-05-01 21:45:21.055,MovementComplete,Unknown,0,Unknown,-,-,-,9,-,-,-,-,-,False,-,-,-,-,-,-,-,-,-,-,-,-,-,-,-,-,-,-,-,-,-,-,-,-,-,-,-,-,-,-,-,-,-,-,-,-,-,-,-,-,-,-,-,-,-,-,-,-,-
2025-05-01 21:45:21.056,RewardCollected,Unknown,0,Unknown,-,-,-,9,-,-,-,-,-,-,-,-,-,-,-,-,-,-,-,-,-,-,-,-,-,-,-,-,-,-,-,-,-,-,-,-,-,-,-,-,-,-,-,-,-,-,-,-,-,-,-,-,-,-,-,-,-,-,-
2025-05-01 21:45:21.273,InfoMessage,Unknown,0,Unknown,-,-,-,-,-,-,-,-,-,-,-,-,-,-,-,-,-,-,-,-,-,-,-,-,-,-,-,-,-,-,-,-,-,-,-,-,-,-,-,-,-,-,-,-,-,-,-,-,-,-,-,-,-,-,-,-,-,-,-
2025-05-01 21:45:23.197,PracticeTrialStart,Unknown,0,Unknown,True,0,-,10,-,-,-,-,-,-,-,-,-,-,-,-,-,-,-,-,-,-,-,-,-,-,-,-,-,-,-,-,-,-,-,-,-,-,-,-,-,-,-,-,-,-,-,-,-,-,-,-,-,-,-,-,-,-,-
2025-05-01 21:45:28.543,InfoMessage,Unknown,0,Unknown,-,-,-,-,-,-,-,-,-,-,-,-,-,-,-,-,-,-,-,-,-,-,-,-,-,-,-,-,-,-,-,-,-,-,-,-,-,-,-,-,-,-,-,-,-,-,-,-,-,-,-,-,-,-,-,-,-,-,-
2025-05-01 21:46:40.030,CHECK_QUESTION,Unknown,0,Unknown,-,-,-,1,-,-,-,-,-,-,-,-,-,-,-,-,-,-,-,-,-,-,-,-,-,-,-,-,-,-,-,-,-,-,-,-,-,-,-,-,-,1,1,FruitPreference,"Choose preferred fruit between Apple(Clone) and Grapes(Clone)",T,T,True,2.189,-,-,-,-,-,-,-,-,-,-
2025-05-01 21:46:43.392,CHECK_QUESTION,Unknown,0,Unknown,-,-,-,2,-,-,-,-,-,-,-,-,-,-,-,-,-,-,-,-,-,-,-,-,-,-,-,-,-,-,-,-,-,-,-,-,-,-,-,-,-,1,2,FruitPreference,"Choose preferred fruit between Grapes(Clone) and Watermelon(Clone)",T,T,True,1.365,-,-,-,-,-,-,-,-,-,-
2025-05-01 21:46:46.117,CHECK_QUESTION,Unknown,0,Unknown,-,-,-,3,-,-,-,-,-,-,-,-,-,-,-,-,-,-,-,-,-,-,-,-,-,-,-,-,-,-,-,-,-,-,-,-,-,-,-,-,-,1,3,FruitPreference,"Choose preferred fruit between Apple(Clone) and Watermelon(Clone)",T,T,True,0.730,-,-,-,-,-,-,-,-,-,-
2025-05-01 21:46:49.753,CHECK_QUESTION,Unknown,0,Unknown,-,-,-,4,-,-,-,-,-,-,-,-,-,-,-,-,-,-,-,-,-,-,-,-,-,-,-,-,-,-,-,-,-,-,-,-,-,-,-,-,-,1,4,FruitPreference,"Choose preferred fruit between Watermelon(Clone) and Grapes(Clone)",T,T,True,1.646,-,-,-,-,-,-,-,-,-,-
2025-05-01 21:46:52.301,CHECK_QUESTION,Unknown,0,Unknown,-,-,-,5,-,-,-,-,-,-,-,-,-,-,-,-,-,-,-,-,-,-,-,-,-,-,-,-,-,-,-,-,-,-,-,-,-,-,-,-,-,1,5,FruitPreference,"Choose preferred fruit between Apple(Clone) and Watermelon(Clone)",T,T,True,0.554,-,-,-,-,-,-,-,-,-,-
2025-05-01 21:46:55.132,CHECK_QUESTION,Unknown,0,Unknown,-,-,-,6,-,-,-,-,-,-,-,-,-,-,-,-,-,-,-,-,-,-,-,-,-,-,-,-,-,-,-,-,-,-,-,-,-,-,-,-,-,1,6,FruitPreference,"Choose preferred fruit between Apple(Clone) and Grapes(Clone)",T,T,True,0.845,-,-,-,-,-,-,-,-,-,-
2025-05-01 21:46:57.128,ExperimentEnd,Unknown,0,Unknown,-,-,-,-,-,-,-,-,-,-,-,-,-,-,-,-,-,-,-,-,-,-,-,-,-,-,-,-,-,-,-,-,-,-,-,-,-,-,-,-,-,-,-,-,-,-,-,-,-,-,-,-,-,-,-,-,-,-,-
2025-05-01 21:46:59.791,CHECK_QUESTION,Unknown,0,Unknown,-,-,-,1,-,-,-,-,-,-,-,-,-,-,-,-,-,-,-,-,-,-,-,-,-,-,-,-,-,-,-,-,-,-,-,-,-,-,-,-,-,2,1,FruitFrequency,How often did you see this Watermelon on Green island?,T,T,True,2.438,-,-,-,-,-,-,-,-,-,-
2025-05-01 21:47:03.705,CHECK_QUESTION,Unknown,0,Unknown,-,-,-,2,-,-,-,-,-,-,-,-,-,-,-,-,-,-,-,-,-,-,-,-,-,-,-,-,-,-,-,-,-,-,-,-,-,-,-,-,-,2,2,FruitFrequency,How often did you see this Grapes on Green island?,T,T,True,0.919,-,-,-,-,-,-,-,-,-,-
2025-05-01 21:47:07.748,CHECK_QUESTION,Unknown,0,Unknown,-,-,-,3,-,-,-,-,-,-,-,-,-,-,-,-,-,-,-,-,-,-,-,-,-,-,-,-,-,-,-,-,-,-,-,-,-,-,-,-,-,2,3,FruitFrequency,How often did you see this Apple on Green island?,T,T,True,1.044,-,-,-,-,-,-,-,-,-,-
2025-05-01 21:47:11.603,CHECK_QUESTION,Unknown,0,Unknown,-,-,-,4,-,-,-,-,-,-,-,-,-,-,-,-,-,-,-,-,-,-,-,-,-,-,-,-,-,-,-,-,-,-,-,-,-,-,-,-,-,2,4,FruitFrequency,How often did you see this Grapes on Blue island?,T,T,True,0.858,-,-,-,-,-,-,-,-,-,-
2025-05-01 21:47:16.328,CHECK_QUESTION,Unknown,0,Unknown,-,-,-,5,-,-,-,-,-,-,-,-,-,-,-,-,-,-,-,-,-,-,-,-,-,-,-,-,-,-,-,-,-,-,-,-,-,-,-,-,-,2,5,FruitFrequency,How often did you see this Apple on Blue island?,T,T,True,1.744,-,-,-,-,-,-,-,-,-,-
2025-05-01 21:47:21.662,CHECK_QUESTION,Unknown,0,Unknown,-,-,-,6,-,-,-,-,-,-,-,-,-,-,-,-,-,-,-,-,-,-,-,-,-,-,-,-,-,-,-,-,-,-,-,-,-,-,-,-,-,2,6,FruitFrequency,How often did you see this Watermelon on Blue island?,T,T,True,2.337,-,-,-,-,-,-,-,-,-,-
2025-05-01 21:47:24.646,ExperimentEnd,Unknown,0,Unknown,-,-,-,-,-,-,-,-,-,-,-,-,-,-,-,-,-,-,-,-,-,-,-,-,-,-,-,-,-,-,-,-,-,-,-,-,-,-,-,-,-,-,-,-,-,-,-,-,-,-,-,-,-,-,-,-,-,-,-
2025-05-01 21:47:26.019,CHECK_QUESTION,Unknown,0,Unknown,-,-,-,1,-,-,-,-,-,-,-,-,-,-,-,-,-,-,-,-,-,-,-,-,-,-,-,-,-,-,-,-,-,-,-,-,-,-,-,-,-,3,1,ComprehensionQuiz,Which of the two FRUITS needs more presses to get?,T,T,True,1.166,-,-,-,-,-,-,-,-,-,-
2025-05-01 21:47:31.039,CHECK_QUESTION,Unknown,0,Unknown,-,-,-,2,-,-,-,-,-,-,-,-,-,-,-,-,-,-,-,-,-,-,-,-,-,-,-,-,-,-,-,-,-,-,-,-,-,-,-,-,-,3,2,ComprehensionQuiz,Your objective in the game is to:,T,T,True,1.032,-,-,-,-,-,-,-,-,-,-
2025-05-01 21:47:35.801,CHECK_QUESTION,Unknown,0,Unknown,-,-,-,3,-,-,-,-,-,-,-,-,-,-,-,-,-,-,-,-,-,-,-,-,-,-,-,-,-,-,-,-,-,-,-,-,-,-,-,-,-,3,3,ComprehensionQuiz,You will visit two islands during your time in the game. What can differ between the two islands?,T,T,True,0.774,-,-,-,-,-,-,-,-,-,-
2025-05-01 21:47:41.132,CHECK_QUESTION,Unknown,0,Unknown,-,-,-,4,-,-,-,-,-,-,-,-,-,-,-,-,-,-,-,-,-,-,-,-,-,-,-,-,-,-,-,-,-,-,-,-,-,-,-,-,-,3,4,ComprehensionQuiz,What does it mean when you successfully collect a fruit?,T,T,True,1.346,-,-,-,-,-,-,-,-,-,-
2025-05-01 21:47:45.130,CHECK_PHASE_COMPLETE,Unknown,0,Unknown,-,-,-,-,-,-,-,-,-,-,-,-,-,-,-,-,-,-,-,-,-,-,-,-,-,-,-,-,-,-,-,-,-,-,-,-,-,-,-,-,-,3,-,-,-,-,-,-,-,6,6,4,16,-,-,-,-,-,-
2025-05-01 21:48:04.306,TrialStart,Unknown,0,Unknown,-,1,-,1,-,-,-,-,-,-,-,-,-,-,-,-,-,-,-,-,-,-,-,-,-,-,-,-,-,-,-,-,-,-,-,-,-,-,-,-,-,-,-,-,-,-,-,-,-,-,-,-,-,-,-,-,-,-,-
2025-05-01 21:48:06.988,InfoMessage,Unknown,0,Unknown,-,-,-,-,-,-,-,-,-,-,-,-,-,-,-,-,-,-,-,-,-,-,-,-,-,-,-,-,-,-,-,-,-,-,-,-,-,-,-,-,-,-,-,-,-,-,-,-,-,-,-,-,-,-,-,-,-,-,-
2025-05-01 21:48:10.010,BlockTimeStatus,Unknown,0,Unknown,-,1,-,-,-,-,-,-,-,-,-,-,-,-,-,-,-,-,-,-,-,-,-,-,-,-,-,-,-,-,275.23,24.77,0,0.00,-,-,-,-,-,-,-,-,-,-,-,-,-,-,-,-,-,-,-,-,-,-,-,-,-
2025-05-01 21:48:12.280,BlockTimeStatus,Unknown,0,Unknown,-,1,-,-,-,-,-,-,-,-,-,-,-,-,-,-,-,-,-,-,-,-,-,-,-,-,-,-,-,-,272.96,27.04,1,2.22,-,-,-,-,-,-,-,-,-,-,-,-,-,-,-,-,-,-,-,-,-,-,-,-,-
2025-05-01 21:48:12.293,TrialStart,Unknown,0,Unknown,-,1,-,2,-,-,-,-,-,-,-,-,-,-,-,-,-,-,-,-,-,-,-,-,-,-,-,-,-,-,-,-,-,-,-,-,-,-,-,-,-,-,-,-,-,-,-,-,-,-,-,-,-,-,-,-,-,-,-
2025-05-01 21:48:12.495,InfoMessage,Unknown,0,Unknown,-,-,-,-,-,-,-,-,-,-,-,-,-,-,-,-,-,-,-,-,-,-,-,-,-,-,-,-,-,-,-,-,-,-,-,-,-,-,-,-,-,-,-,-,-,-,-,-,-,-,-,-,-,-,-,-,-,-,-
2025-05-01 21:48:12.496,TrialStart,Unknown,0,Unknown,-,1,-,2,-,-,-,-,-,-,-,-,-,-,-,-,-,-,-,-,-,-,-,-,-,-,-,-,-,-,-,-,-,-,-,-,-,-,-,-,-,-,-,-,-,-,-,-,-,-,-,-,-,-,-,-,-,-,-
2025-05-01 21:48:12.692,InfoMessage,Unknown,0,Unknown,-,-,-,-,-,-,-,-,-,-,-,-,-,-,-,-,-,-,-,-,-,-,-,-,-,-,-,-,-,-,-,-,-,-,-,-,-,-,-,-,-,-,-,-,-,-,-,-,-,-,-,-,-,-,-,-,-,-,-
2025-05-01 21:48:15.311,InfoMessage,Unknown,0,Unknown,-,-,-,-,-,-,-,-,-,-,-,-,-,-,-,-,-,-,-,-,-,-,-,-,-,-,-,-,-,-,-,-,-,-,-,-,-,-,-,-,-,-,-,-,-,-,-,-,-,-,-,-,-,-,-,-,-,-,-
2025-05-01 21:48:17.034,MovementStart,Unknown,0,Unknown,-,1,-,2,-,-,-,-,-,-,-,-,-,-,-,-,-,-,-,0.50,-3.50,-,-,-,-,-,-,-,-,-,-,-,-,-,-,-,-,-,-,-,-,-,-,-,-,-,-,-,-,-,-,-,-,-,-,-,-,-,-
2025-05-01 21:48:17.135,MovementStep,Unknown,0,Unknown,-,1,LowHighRatio,2,2,0,-,-,Pending,-,-,-,-,-,496.960,497.061,0.100,True,0,0.50,-3.50,1.50,-3.50,-,-,-1.000,False,-,-,-,-,-,-,-,-,-,-,-,-,-,-,-,-,-,-,-,-,-,-,-,-,-,-,-,-,-,-,-,-
2025-05-01 21:48:17.212,MovementStart,Unknown,0,Unknown,-,1,-,2,-,-,-,-,-,-,-,-,-,-,-,-,-,-,-,1.50,-3.50,-,-,-,-,-,-,-,-,-,-,-,-,-,-,-,-,-,-,-,-,-,-,-,-,-,-,-,-,-,-,-,-,-,-,-,-,-,-
2025-05-01 21:48:17.312,MovementStep,Unknown,0,Unknown,-,1,LowHighRatio,2,2,0,-,-,Pending,-,-,-,-,-,497.138,497.238,0.100,True,0,1.50,-3.50,2.50,-3.50,-,-,-1.000,False,-,-,-,-,-,-,-,-,-,-,-,-,-,-,-,-,-,-,-,-,-,-,-,-,-,-,-,-,-,-,-,-
2025-05-01 21:48:17.366,MovementStart,Unknown,0,Unknown,-,1,-,2,-,-,-,-,-,-,-,-,-,-,-,-,-,-,-,2.50,-3.50,-,-,-,-,-,-,-,-,-,-,-,-,-,-,-,-,-,-,-,-,-,-,-,-,-,-,-,-,-,-,-,-,-,-,-,-,-,-
2025-05-01 21:48:17.466,MovementStep,Unknown,0,Unknown,-,1,LowHighRatio,2,2,0,-,-,Pending,-,-,-,-,-,497.292,497.392,0.100,True,0,2.50,-3.50,3.50,-3.50,-,-,-1.000,False,-,-,-,-,-,-,-,-,-,-,-,-,-,-,-,-,-,-,-,-,-,-,-,-,-,-,-,-,-,-,-,-
2025-05-01 21:48:20.010,BlockTimeStatus,Unknown,0,Unknown,-,1,-,-,-,-,-,-,-,-,-,-,-,-,-,-,-,-,-,-,-,-,-,-,-,-,-,-,-,-,265.26,34.74,1,1.73,-,-,-,-,-,-,-,-,-,-,-,-,-,-,-,-,-,-,-,-,-,-,-,-,-
2025-05-01 21:48:20.500,MovementDuration,Unknown,0,Unknown,-,-,-,2,-,-,-,-,Failure,-,-,-,-,3.465,-,-,-,-,-,-,-,-,-,-,-,-,-,-,-,-,-,-,-,-,-,-,-,-,-,-,-,-,-,-,-,-,-,-,-,-,-,-,-,-,-,-,-,-,-
2025-05-01 21:48:20.500,OutcomeType,Unknown,0,Unknown,-,-,-,2,-,-,-,-,Failure,-,-,-,-,-,-,-,-,-,-,-,-,-,-,-,-,-,-,-,-,-,-,-,-,-,-,-,-,-,-,-,-,-,-,-,-,-,-,-,-,-,-,-,-,-,-,-,-,-,-
2025-05-01 21:48:20.501,RewardCollected,Unknown,0,Unknown,-,-,-,2,-,-,-,-,-,-,-,-,-,-,-,-,-,-,-,-,-,-,-,-,-,-,-,-,-,-,-,-,-,-,-,-,-,-,-,-,-,-,-,-,-,-,-,-,-,-,-,-,-,-,-,-,-,-,-
2025-05-01 21:48:20.501,ButtonPresses,Unknown,0,Unknown,-,-,-,2,-,-,-,-,-,-,-,-,-,-,-,-,-,-,-,-,-,-,-,3,1.535:right|1.712:right|1.867:right,-,-,-,-,-,-,-,-,-,-,-,-,-,-,-,-,-,-,-,-,-,-,-,-,-,-,-,-,-,-,-,-,-,-
2025-05-01 21:48:20.503,DecisionOutcome,Unknown,0,Unknown,False,1,LowHighRatio,2,2,0,Work,2.312,Failure,False,0,0,0,3.465,-,-,-,-,-,-,-,-,-,3,1.535:right|1.712:right|1.867:right,1.155,False,0.1,-,-,264.77,35.23,1,1.70,-,-,-,-,-,-,-,-,-,-,-,-,-,-,-,-,-,-,-,-,-,-,-,-,-
2025-05-01 21:48:20.504,ButtonPresses,Unknown,0,Unknown,-,-,-,2,-,-,-,-,-,-,-,-,-,-,-,-,-,-,-,-,-,-,-,3,1.535:right|1.712:right|1.867:right,-,-,-,-,-,-,-,-,-,-,-,-,-,-,-,-,-,-,-,-,-,-,-,-,-,-,-,-,-,-,-,-,-,-
2025-05-01 21:48:20.504,MovementComplete,Unknown,0,Unknown,-,-,-,2,-,-,-,-,-,False,-,-,-,-,-,-,-,-,-,-,-,-,-,-,-,-,-,-,-,-,-,-,-,-,-,-,-,-,-,-,-,-,-,-,-,-,-,-,-,-,-,-,-,-,-,-,-,-,-
2025-05-01 21:48:20.504,RewardCollected,Unknown,0,Unknown,-,-,-,2,-,-,-,-,-,-,-,-,-,-,-,-,-,-,-,-,-,-,-,-,-,-,-,-,-,-,-,-,-,-,-,-,-,-,-,-,-,-,-,-,-,-,-,-,-,-,-,-,-,-,-,-,-,-,-
2025-05-01 21:48:20.601,BlockTimeStatus,Unknown,0,Unknown,-,1,-,-,-,-,-,-,-,-,-,-,-,-,-,-,-,-,-,-,-,-,-,-,-,-,-,-,-,-,264.67,35.34,2,3.40,-,-,-,-,-,-,-,-,-,-,-,-,-,-,-,-,-,-,-,-,-,-,-,-,-
2025-05-01 21:48:20.612,TrialStart,Unknown,0,Unknown,-,1,-,3,-,-,-,-,-,-,-,-,-,-,-,-,-,-,-,-,-,-,-,-,-,-,-,-,-,-,-,-,-,-,-,-,-,-,-,-,-,-,-,-,-,-,-,-,-,-,-,-,-,-,-,-,-,-,-
2025-05-01 21:48:20.812,InfoMessage,Unknown,0,Unknown,-,-,-,-,-,-,-,-,-,-,-,-,-,-,-,-,-,-,-,-,-,-,-,-,-,-,-,-,-,-,-,-,-,-,-,-,-,-,-,-,-,-,-,-,-,-,-,-,-,-,-,-,-,-,-,-,-,-,-
2025-05-01 21:48:20.813,TrialStart,Unknown,0,Unknown,-,1,-,3,-,-,-,-,-,-,-,-,-,-,-,-,-,-,-,-,-,-,-,-,-,-,-,-,-,-,-,-,-,-,-,-,-,-,-,-,-,-,-,-,-,-,-,-,-,-,-,-,-,-,-,-,-,-,-
2025-05-01 21:48:21.009,InfoMessage,Unknown,0,Unknown,-,-,-,-,-,-,-,-,-,-,-,-,-,-,-,-,-,-,-,-,-,-,-,-,-,-,-,-,-,-,-,-,-,-,-,-,-,-,-,-,-,-,-,-,-,-,-,-,-,-,-,-,-,-,-,-,-,-,-
2025-05-01 21:48:22.199,DecisionOutcome,Unknown,0,Unknown,False,1,LowHighRatio,3,1,0,Skip,1.194,Skip,False,0,0,0,0.000,-,-,-,-,-,-,-,-,-,0,-,-1.000,False,0.1,Skip,3,263.09,36.91,2,3.25,-,-,-,-,-,-,-,-,-,-,-,-,-,-,-,-,-,-,-,-,-,-,-,-,-
2025-05-01 21:48:22.200,ScoreUpdate,Unknown,0,Unknown,False,1,-,3,-,-,-,-,-,-,0,0,0,-,-,-,-,-,-,-,-,-,-,-,-,-,-,-,-,-,-,-,-,-,-,-,-,-,-,-,-,-,-,-,-,-,-,-,-,-,-,-,-,-,-,-,-,-,-
2025-05-01 21:48:25.193,TrialStart,Unknown,0,Unknown,-,1,-,4,-,-,-,-,-,-,-,-,-,-,-,-,-,-,-,-,-,-,-,-,-,-,-,-,-,-,-,-,-,-,-,-,-,-,-,-,-,-,-,-,-,-,-,-,-,-,-,-,-,-,-,-,-,-,-
2025-05-01 21:48:25.198,TrialStart,Unknown,0,Unknown,-,1,-,4,-,-,-,-,-,-,-,-,-,-,-,-,-,-,-,-,-,-,-,-,-,-,-,-,-,-,-,-,-,-,-,-,-,-,-,-,-,-,-,-,-,-,-,-,-,-,-,-,-,-,-,-,-,-,-
2025-05-01 21:48:25.396,InfoMessage,Unknown,0,Unknown,-,-,-,-,-,-,-,-,-,-,-,-,-,-,-,-,-,-,-,-,-,-,-,-,-,-,-,-,-,-,-,-,-,-,-,-,-,-,-,-,-,-,-,-,-,-,-,-,-,-,-,-,-,-,-,-,-,-,-
2025-05-01 21:48:26.199,InfoMessage,Unknown,0,Unknown,-,-,-,-,-,-,-,-,-,-,-,-,-,-,-,-,-,-,-,-,-,-,-,-,-,-,-,-,-,-,-,-,-,-,-,-,-,-,-,-,-,-,-,-,-,-,-,-,-,-,-,-,-,-,-,-,-,-,-
2025-05-01 21:48:30.009,BlockTimeStatus,Unknown,0,Unknown,-,1,-,-,-,-,-,-,-,-,-,-,-,-,-,-,-,-,-,-,-,-,-,-,-,-,-,-,-,-,255.28,44.72,2,2.68,-,-,-,-,-,-,-,-,-,-,-,-,-,-,-,-,-,-,-,-,-,-,-,-,-
2025-05-01 21:48:31.488,BlockTimeStatus,Unknown,0,Unknown,-,1,-,-,-,-,-,-,-,-,-,-,-,-,-,-,-,-,-,-,-,-,-,-,-,-,-,-,-,-,253.81,46.19,3,3.90,-,-,-,-,-,-,-,-,-,-,-,-,-,-,-,-,-,-,-,-,-,-,-,-,-
2025-05-01 21:48:31.499,TrialStart,Unknown,0,Unknown,-,1,-,5,-,-,-,-,-,-,-,-,-,-,-,-,-,-,-,-,-,-,-,-,-,-,-,-,-,-,-,-,-,-,-,-,-,-,-,-,-,-,-,-,-,-,-,-,-,-,-,-,-,-,-,-,-,-,-
2025-05-01 21:48:31.701,InfoMessage,Unknown,0,Unknown,-,-,-,-,-,-,-,-,-,-,-,-,-,-,-,-,-,-,-,-,-,-,-,-,-,-,-,-,-,-,-,-,-,-,-,-,-,-,-,-,-,-,-,-,-,-,-,-,-,-,-,-,-,-,-,-,-,-,-
2025-05-01 21:48:31.702,TrialStart,Unknown,0,Unknown,-,1,-,5,-,-,-,-,-,-,-,-,-,-,-,-,-,-,-,-,-,-,-,-,-,-,-,-,-,-,-,-,-,-,-,-,-,-,-,-,-,-,-,-,-,-,-,-,-,-,-,-,-,-,-,-,-,-,-
2025-05-01 21:48:31.897,InfoMessage,Unknown,0,Unknown,-,-,-,-,-,-,-,-,-,-,-,-,-,-,-,-,-,-,-,-,-,-,-,-,-,-,-,-,-,-,-,-,-,-,-,-,-,-,-,-,-,-,-,-,-,-,-,-,-,-,-,-,-,-,-,-,-,-,-
2025-05-01 21:48:32.857,InfoMessage,Unknown,0,Unknown,-,-,-,-,-,-,-,-,-,-,-,-,-,-,-,-,-,-,-,-,-,-,-,-,-,-,-,-,-,-,-,-,-,-,-,-,-,-,-,-,-,-,-,-,-,-,-,-,-,-,-,-,-,-,-,-,-,-,-
2025-05-01 21:48:33.802,MovementStart,Unknown,0,Unknown,-,1,-,5,-,-,-,-,-,-,-,-,-,-,-,-,-,-,-,7.50,-0.50,-,-,-,-,-,-,-,-,-,-,-,-,-,-,-,-,-,-,-,-,-,-,-,-,-,-,-,-,-,-,-,-,-,-,-,-,-,-
2025-05-01 21:48:33.902,MovementStep,Unknown,0,Unknown,-,1,LowHighRatio,5,2,0,-,-,Pending,-,-,-,-,-,512.353,512.453,0.100,True,0,7.50,-0.50,6.50,-0.50,-,-,-1.000,False,-,-,-,-,-,-,-,-,-,-,-,-,-,-,-,-,-,-,-,-,-,-,-,-,-,-,-,-,-,-,-,-
2025-05-01 21:48:33.971,MovementStart,Unknown,0,Unknown,-,1,-,5,-,-,-,-,-,-,-,-,-,-,-,-,-,-,-,6.50,-0.50,-,-,-,-,-,-,-,-,-,-,-,-,-,-,-,-,-,-,-,-,-,-,-,-,-,-,-,-,-,-,-,-,-,-,-,-,-,-
2025-05-01 21:48:34.070,MovementStep,Unknown,0,Unknown,-,1,LowHighRatio,5,2,0,-,-,Pending,-,-,-,-,-,512.522,512.622,0.100,True,0,6.50,-0.50,5.50,-0.50,-,-,-1.000,False,-,-,-,-,-,-,-,-,-,-,-,-,-,-,-,-,-,-,-,-,-,-,-,-,-,-,-,-,-,-,-,-
2025-05-01 21:48:34.107,MovementStart,Unknown,0,Unknown,-,1,-,5,-,-,-,-,-,-,-,-,-,-,-,-,-,-,-,5.50,-0.50,-,-,-,-,-,-,-,-,-,-,-,-,-,-,-,-,-,-,-,-,-,-,-,-,-,-,-,-,-,-,-,-,-,-,-,-,-,-
2025-05-01 21:48:34.207,MovementStep,Unknown,0,Unknown,-,1,LowHighRatio,5,2,0,-,-,Pending,-,-,-,-,-,512.659,512.759,0.100,True,0,5.50,-0.50,4.50,-0.50,-,-,-1.000,False,-,-,-,-,-,-,-,-,-,-,-,-,-,-,-,-,-,-,-,-,-,-,-,-,-,-,-,-,-,-,-,-
2025-05-01 21:48:34.240,MovementStart,Unknown,0,Unknown,-,1,-,5,-,-,-,-,-,-,-,-,-,-,-,-,-,-,-,4.50,-0.50,-,-,-,-,-,-,-,-,-,-,-,-,-,-,-,-,-,-,-,-,-,-,-,-,-,-,-,-,-,-,-,-,-,-,-,-,-,-
2025-05-01 21:48:34.340,MovementStep,Unknown,0,Unknown,-,1,LowHighRatio,5,2,0,-,-,Pending,-,-,-,-,-,512.791,512.892,0.100,True,0,4.51,-0.50,3.50,-0.50,-,-,-1.000,False,-,-,-,-,-,-,-,-,-,-,-,-,-,-,-,-,-,-,-,-,-,-,-,-,-,-,-,-,-,-,-,-
2025-05-01 21:48:34.381,MovementStart,Unknown,0,Unknown,-,1,-,5,-,-,-,-,-,-,-,-,-,-,-,-,-,-,-,3.50,-0.50,-,-,-,-,-,-,-,-,-,-,-,-,-,-,-,-,-,-,-,-,-,-,-,-,-,-,-,-,-,-,-,-,-,-,-,-,-,-
2025-05-01 21:48:34.390,ScoreUpdate,Unknown,0,Unknown,False,1,-,5,-,-,-,-,-,-,10,10,0,-,-,-,-,-,-,-,-,-,-,-,-,-,-,-,-,-,-,-,-,-,-,-,-,-,-,-,-,-,-,-,-,-,-,-,-,-,-,-,-,-,-,-,-,-,-
2025-05-01 21:48:34.398,CollisionTime,Unknown,0,Unknown,False,-,-,5,-,-,-,-,-,-,-,-,-,0.587,-,-,-,-,-,-,-,-,-,-,-,-,-,-,-,-,-,-,-,-,-,-,-,-,-,-,-,-,-,-,-,-,-,-,-,-,-,-,-,-,-,-,-,-,-
2025-05-01 21:48:34.399,MovementDuration,Unknown,0,Unknown,-,-,-,5,-,-,-,-,Success,-,-,-,-,0.587,-,-,-,-,-,-,-,-,-,-,-,-,-,-,-,-,-,-,-,-,-,-,-,-,-,-,-,-,-,-,-,-,-,-,-,-,-,-,-,-,-,-,-,-,-
2025-05-01 21:48:34.401,DecisionOutcome,Unknown,0,Unknown,False,1,LowHighRatio,5,2,0,Work,0.647,Success,True,10,10,0,0.587,-,-,-,-,-,-,-,-,-,5,0.757:left|0.925:left|1.062:left|1.195:left|1.336:left,0.117,False,0.1,-,-,250.93,49.07,3,3.67,-,-,-,-,-,-,-,-,-,-,-,-,-,-,-,-,-,-,-,-,-,-,-,-,-
2025-05-01 21:48:34.401,MovementComplete,Unknown,0,Unknown,-,-,-,5,-,-,-,-,-,True,-,-,-,-,-,-,-,-,-,-,-,-,-,-,-,-,-,-,-,-,-,-,-,-,-,-,-,-,-,-,-,-,-,-,-,-,-,-,-,-,-,-,-,-,-,-,-,-,-
2025-05-01 21:48:34.401,RewardCollected,Unknown,0,Unknown,-,-,-,5,-,-,-,-,-,-,-,-,-,-,-,-,-,-,-,-,-,-,-,-,-,-,-,-,-,-,-,-,-,-,-,-,-,-,-,-,-,-,-,-,-,-,-,-,-,-,-,-,-,-,-,-,-,-,-
2025-05-01 21:48:34.402,OutcomeType,Unknown,0,Unknown,-,-,-,5,-,-,-,-,Success,-,-,-,-,-,-,-,-,-,-,-,-,-,-,-,-,-,-,-,-,-,-,-,-,-,-,-,-,-,-,-,-,-,-,-,-,-,-,-,-,-,-,-,-,-,-,-,-,-,-
2025-05-01 21:48:34.402,RewardCollected,Unknown,0,Unknown,-,-,-,5,-,-,-,-,-,-,-,-,-,-,-,-,-,-,-,-,-,-,-,-,-,-,-,-,-,-,-,-,-,-,-,-,-,-,-,-,-,-,-,-,-,-,-,-,-,-,-,-,-,-,-,-,-,-,-
2025-05-01 21:48:34.402,ButtonPresses,Unknown,0,Unknown,-,-,-,5,-,-,-,-,-,-,-,-,-,-,-,-,-,-,-,-,-,-,-,5,0.757:left|0.925:left|1.062:left|1.195:left|1.336:left,-,-,-,-,-,-,-,-,-,-,-,-,-,-,-,-,-,-,-,-,-,-,-,-,-,-,-,-,-,-,-,-,-,-
2025-05-01 21:48:34.480,MovementStep,Unknown,0,Unknown,-,1,LowHighRatio,5,2,0,-,-,Success,-,-,-,-,-,512.932,513.032,0.100,True,0,3.50,-0.50,2.50,-0.50,-,-,-1.000,False,-,-,-,-,-,-,-,-,-,-,-,-,-,-,-,-,-,-,-,-,-,-,-,-,-,-,-,-,-,-,-,-
2025-05-01 21:48:38.146,BlockTimeStatus,Unknown,0,Unknown,-,1,-,-,-,-,-,-,-,-,-,-,-,-,-,-,-,-,-,-,-,-,-,-,-,-,-,-,-,-,247.17,52.83,4,4.54,-,-,-,-,-,-,-,-,-,-,-,-,-,-,-,-,-,-,-,-,-,-,-,-,-
2025-05-01 21:48:38.157,TrialStart,Unknown,0,Unknown,-,1,-,6,-,-,-,-,-,-,-,-,-,-,-,-,-,-,-,-,-,-,-,-,-,-,-,-,-,-,-,-,-,-,-,-,-,-,-,-,-,-,-,-,-,-,-,-,-,-,-,-,-,-,-,-,-,-,-
2025-05-01 21:48:38.356,InfoMessage,Unknown,0,Unknown,-,-,-,-,-,-,-,-,-,-,-,-,-,-,-,-,-,-,-,-,-,-,-,-,-,-,-,-,-,-,-,-,-,-,-,-,-,-,-,-,-,-,-,-,-,-,-,-,-,-,-,-,-,-,-,-,-,-,-
2025-05-01 21:48:38.357,TrialStart,Unknown,0,Unknown,-,1,-,6,-,-,-,-,-,-,-,-,-,-,-,-,-,-,-,-,-,-,-,-,-,-,-,-,-,-,-,-,-,-,-,-,-,-,-,-,-,-,-,-,-,-,-,-,-,-,-,-,-,-,-,-,-,-,-
2025-05-01 21:48:38.551,InfoMessage,Unknown,0,Unknown,-,-,-,-,-,-,-,-,-,-,-,-,-,-,-,-,-,-,-,-,-,-,-,-,-,-,-,-,-,-,-,-,-,-,-,-,-,-,-,-,-,-,-,-,-,-,-,-,-,-,-,-,-,-,-,-,-,-,-
2025-05-01 21:48:40.011,BlockTimeStatus,Unknown,0,Unknown,-,1,-,-,-,-,-,-,-,-,-,-,-,-,-,-,-,-,-,-,-,-,-,-,-,-,-,-,-,-,245.32,54.68,4,4.39,-,-,-,-,-,-,-,-,-,-,-,-,-,-,-,-,-,-,-,-,-,-,-,-,-
2025-05-01 21:48:40.172,DecisionOutcome,Unknown,0,Unknown,False,1,LowHighRatio,6,3,0,Skip,1.627,Skip,False,0,10,0,0.000,-,-,-,-,-,-,-,-,-,0,-,-1.000,False,0.1,Skip,3,245.17,54.83,4,4.38,-,-,-,-,-,-,-,-,-,-,-,-,-,-,-,-,-,-,-,-,-,-,-,-,-
2025-05-01 21:48:40.173,ScoreUpdate,Unknown,0,Unknown,False,1,-,6,-,-,-,-,-,-,0,10,0,-,-,-,-,-,-,-,-,-,-,-,-,-,-,-,-,-,-,-,-,-,-,-,-,-,-,-,-,-,-,-,-,-,-,-,-,-,-,-,-,-,-,-,-,-,-
2025-05-01 21:48:43.169,TrialStart,Unknown,0,Unknown,-,1,-,7,-,-,-,-,-,-,-,-,-,-,-,-,-,-,-,-,-,-,-,-,-,-,-,-,-,-,-,-,-,-,-,-,-,-,-,-,-,-,-,-,-,-,-,-,-,-,-,-,-,-,-,-,-,-,-
2025-05-01 21:48:43.173,TrialStart,Unknown,0,Unknown,-,1,-,7,-,-,-,-,-,-,-,-,-,-,-,-,-,-,-,-,-,-,-,-,-,-,-,-,-,-,-,-,-,-,-,-,-,-,-,-,-,-,-,-,-,-,-,-,-,-,-,-,-,-,-,-,-,-,-
2025-05-01 21:48:43.370,InfoMessage,Unknown,0,Unknown,-,-,-,-,-,-,-,-,-,-,-,-,-,-,-,-,-,-,-,-,-,-,-,-,-,-,-,-,-,-,-,-,-,-,-,-,-,-,-,-,-,-,-,-,-,-,-,-,-,-,-,-,-,-,-,-,-,-,-
2025-05-01 21:48:45.854,ScoreUpdate,Unknown,0,Unknown,False,1,-,7,-,-,-,-,-,-,0,10,0,-,-,-,-,-,-,-,-,-,-,-,-,-,-,-,-,-,-,-,-,-,-,-,-,-,-,-,-,-,-,-,-,-,-,-,-,-,-,-,-,-,-,-,-,-,-
2025-05-01 21:48:45.857,DecisionOutcome,Unknown,0,Unknown,False,1,LowHighRatio,7,1,0,NoDecision,2.500,Timeout,False,0,10,0,0.000,-,-,-,-,-,-,-,-,-,0,-,-1.000,False,0.1,-,-,239.49,60.51,4,3.97,-,-,-,-,-,-,-,-,-,-,-,-,-,-,-,-,-,-,-,-,-,-,-,-,-
2025-05-01 21:48:45.858,PenaltyStart,Unknown,0,Unknown,-,-,-,7,-,-,-,-,-,-,-,-,-,-,-,-,-,-,-,-,-,-,-,-,-,-,-,-,NoDecision,5,-,-,-,-,-,-,-,-,-,-,-,-,-,-,-,-,-,-,-,-,-,-,-,-,-,-,-,-,-
2025-05-01 21:48:50.010,BlockTimeStatus,Unknown,0,Unknown,-,1,-,-,-,-,-,-,-,-,-,-,-,-,-,-,-,-,-,-,-,-,-,-,-,-,-,-,-,-,235.34,64.66,4,3.71,-,-,-,-,-,-,-,-,-,-,-,-,-,-,-,-,-,-,-,-,-,-,-,-,-
2025-05-01 21:48:51.167,BlockTimeStatus,Unknown,0,Unknown,-,1,-,-,-,-,-,-,-,-,-,-,-,-,-,-,-,-,-,-,-,-,-,-,-,-,-,-,-,-,234.18,65.82,5,4.56,-,-,-,-,-,-,-,-,-,-,-,-,-,-,-,-,-,-,-,-,-,-,-,-,-
2025-05-01 21:48:51.189,TrialStart,Unknown,0,Unknown,-,1,-,8,-,-,-,-,-,-,-,-,-,-,-,-,-,-,-,-,-,-,-,-,-,-,-,-,-,-,-,-,-,-,-,-,-,-,-,-,-,-,-,-,-,-,-,-,-,-,-,-,-,-,-,-,-,-,-
2025-05-01 21:48:51.438,InfoMessage,Unknown,0,Unknown,-,-,-,-,-,-,-,-,-,-,-,-,-,-,-,-,-,-,-,-,-,-,-,-,-,-,-,-,-,-,-,-,-,-,-,-,-,-,-,-,-,-,-,-,-,-,-,-,-,-,-,-,-,-,-,-,-,-,-
2025-05-01 21:48:53.898,ScoreUpdate,Unknown,0,Unknown,False,1,-,8,-,-,-,-,-,-,0,10,0,-,-,-,-,-,-,-,-,-,-,-,-,-,-,-,-,-,-,-,-,-,-,-,-,-,-,-,-,-,-,-,-,-,-,-,-,-,-,-,-,-,-,-,-,-,-
2025-05-01 21:48:53.901,DecisionOutcome,Unknown,0,Unknown,False,1,LowHighRatio,8,3,0,NoDecision,2.500,Timeout,False,0,10,0,0.000,-,-,-,-,-,-,-,-,-,0,-,-1.000,False,0.1,-,-,231.47,68.53,5,4.38,-,-,-,-,-,-,-,-,-,-,-,-,-,-,-,-,-,-,-,-,-,-,-,-,-
2025-05-01 21:48:53.902,PenaltyStart,Unknown,0,Unknown,-,-,-,8,-,-,-,-,-,-,-,-,-,-,-,-,-,-,-,-,-,-,-,-,-,-,-,-,NoDecision,5,-,-,-,-,-,-,-,-,-,-,-,-,-,-,-,-,-,-,-,-,-,-,-,-,-,-,-,-,-
2025-05-01 21:48:59.227,BlockTimeStatus,Unknown,0,Unknown,-,1,-,-,-,-,-,-,-,-,-,-,-,-,-,-,-,-,-,-,-,-,-,-,-,-,-,-,-,-,226.15,73.85,6,4.87,-,-,-,-,-,-,-,-,-,-,-,-,-,-,-,-,-,-,-,-,-,-,-,-,-
2025-05-01 21:48:59.245,TrialStart,Unknown,0,Unknown,-,1,-,9,-,-,-,-,-,-,-,-,-,-,-,-,-,-,-,-,-,-,-,-,-,-,-,-,-,-,-,-,-,-,-,-,-,-,-,-,-,-,-,-,-,-,-,-,-,-,-,-,-,-,-,-,-,-,-
2025-05-01 21:48:59.477,InfoMessage,Unknown,0,Unknown,-,-,-,-,-,-,-,-,-,-,-,-,-,-,-,-,-,-,-,-,-,-,-,-,-,-,-,-,-,-,-,-,-,-,-,-,-,-,-,-,-,-,-,-,-,-,-,-,-,-,-,-,-,-,-,-,-,-,-
2025-05-01 21:49:00.010,BlockTimeStatus,Unknown,0,Unknown,-,1,-,-,-,-,-,-,-,-,-,-,-,-,-,-,-,-,-,-,-,-,-,-,-,-,-,-,-,-,225.38,74.62,6,4.82,-,-,-,-,-,-,-,-,-,-,-,-,-,-,-,-,-,-,-,-,-,-,-,-,-
2025-05-01 21:49:01.938,ScoreUpdate,Unknown,0,Unknown,False,1,-,9,-,-,-,-,-,-,0,10,0,-,-,-,-,-,-,-,-,-,-,-,-,-,-,-,-,-,-,-,-,-,-,-,-,-,-,-,-,-,-,-,-,-,-,-,-,-,-,-,-,-,-,-,-,-,-
2025-05-01 21:49:01.940,DecisionOutcome,Unknown,0,Unknown,False,1,LowHighRatio,9,2,0,NoDecision,2.500,Timeout,False,0,10,0,0.000,-,-,-,-,-,-,-,-,-,0,-,-1.000,False,0.1,-,-,223.46,76.54,6,4.70,-,-,-,-,-,-,-,-,-,-,-,-,-,-,-,-,-,-,-,-,-,-,-,-,-
2025-05-01 21:49:01.941,PenaltyStart,Unknown,0,Unknown,-,-,-,9,-,-,-,-,-,-,-,-,-,-,-,-,-,-,-,-,-,-,-,-,-,-,-,-,NoDecision,5,-,-,-,-,-,-,-,-,-,-,-,-,-,-,-,-,-,-,-,-,-,-,-,-,-,-,-,-,-
2025-05-01 21:49:07.250,BlockTimeStatus,Unknown,0,Unknown,-,1,-,-,-,-,-,-,-,-,-,-,-,-,-,-,-,-,-,-,-,-,-,-,-,-,-,-,-,-,218.15,81.85,7,5.13,-,-,-,-,-,-,-,-,-,-,-,-,-,-,-,-,-,-,-,-,-,-,-,-,-
2025-05-01 21:49:07.268,TrialStart,Unknown,0,Unknown,-,1,-,10,-,-,-,-,-,-,-,-,-,-,-,-,-,-,-,-,-,-,-,-,-,-,-,-,-,-,-,-,-,-,-,-,-,-,-,-,-,-,-,-,-,-,-,-,-,-,-,-,-,-,-,-,-,-,-
2025-05-01 21:49:07.510,InfoMessage,Unknown,0,Unknown,-,-,-,-,-,-,-,-,-,-,-,-,-,-,-,-,-,-,-,-,-,-,-,-,-,-,-,-,-,-,-,-,-,-,-,-,-,-,-,-,-,-,-,-,-,-,-,-,-,-,-,-,-,-,-,-,-,-,-
2025-05-01 21:49:09.988,ScoreUpdate,Unknown,0,Unknown,False,1,-,10,-,-,-,-,-,-,0,10,0,-,-,-,-,-,-,-,-,-,-,-,-,-,-,-,-,-,-,-,-,-,-,-,-,-,-,-,-,-,-,-,-,-,-,-,-,-,-,-,-,-,-,-,-,-,-
2025-05-01 21:49:09.991,DecisionOutcome,Unknown,0,Unknown,False,1,LowHighRatio,10,3,0,NoDecision,2.500,Timeout,False,0,10,0,0.000,-,-,-,-,-,-,-,-,-,0,-,-1.000,False,0.1,-,-,215.42,84.58,7,4.97,-,-,-,-,-,-,-,-,-,-,-,-,-,-,-,-,-,-,-,-,-,-,-,-,-
2025-05-01 21:49:09.992,PenaltyStart,Unknown,0,Unknown,-,-,-,10,-,-,-,-,-,-,-,-,-,-,-,-,-,-,-,-,-,-,-,-,-,-,-,-,NoDecision,5,-,-,-,-,-,-,-,-,-,-,-,-,-,-,-,-,-,-,-,-,-,-,-,-,-,-,-,-,-
2025-05-01 21:49:10.218,BlockTimeStatus,Unknown,0,Unknown,-,1,-,-,-,-,-,-,-,-,-,-,-,-,-,-,-,-,-,-,-,-,-,-,-,-,-,-,-,-,215.20,84.80,7,4.95,-,-,-,-,-,-,-,-,-,-,-,-,-,-,-,-,-,-,-,-,-,-,-,-,-
2025-05-01 21:49:15.298,BlockTimeStatus,Unknown,0,Unknown,-,1,-,-,-,-,-,-,-,-,-,-,-,-,-,-,-,-,-,-,-,-,-,-,-,-,-,-,-,-,210.12,89.88,8,5.34,-,-,-,-,-,-,-,-,-,-,-,-,-,-,-,-,-,-,-,-,-,-,-,-,-
2025-05-01 21:49:15.309,TrialStart,Unknown,0,Unknown,-,1,-,11,-,-,-,-,-,-,-,-,-,-,-,-,-,-,-,-,-,-,-,-,-,-,-,-,-,-,-,-,-,-,-,-,-,-,-,-,-,-,-,-,-,-,-,-,-,-,-,-,-,-,-,-,-,-,-
2025-05-01 21:49:15.520,InfoMessage,Unknown,0,Unknown,-,-,-,-,-,-,-,-,-,-,-,-,-,-,-,-,-,-,-,-,-,-,-,-,-,-,-,-,-,-,-,-,-,-,-,-,-,-,-,-,-,-,-,-,-,-,-,-,-,-,-,-,-,-,-,-,-,-,-
2025-05-01 21:49:17.990,ScoreUpdate,Unknown,0,Unknown,False,1,-,11,-,-,-,-,-,-,0,10,0,-,-,-,-,-,-,-,-,-,-,-,-,-,-,-,-,-,-,-,-,-,-,-,-,-,-,-,-,-,-,-,-,-,-,-,-,-,-,-,-,-,-,-,-,-,-
2025-05-01 21:49:17.993,DecisionOutcome,Unknown,0,Unknown,False,1,LowHighRatio,11,2,0,NoDecision,2.500,Timeout,False,0,10,0,0.000,-,-,-,-,-,-,-,-,-,0,-,-1.000,False,0.1,-,-,207.44,92.56,8,5.19,-,-,-,-,-,-,-,-,-,-,-,-,-,-,-,-,-,-,-,-,-,-,-,-,-
2025-05-01 21:49:17.993,PenaltyStart,Unknown,0,Unknown,-,-,-,11,-,-,-,-,-,-,-,-,-,-,-,-,-,-,-,-,-,-,-,-,-,-,-,-,NoDecision,5,-,-,-,-,-,-,-,-,-,-,-,-,-,-,-,-,-,-,-,-,-,-,-,-,-,-,-,-,-
2025-05-01 21:49:20.010,BlockTimeStatus,Unknown,0,Unknown,-,1,-,-,-,-,-,-,-,-,-,-,-,-,-,-,-,-,-,-,-,-,-,-,-,-,-,-,-,-,205.42,94.58,8,5.08,-,-,-,-,-,-,-,-,-,-,-,-,-,-,-,-,-,-,-,-,-,-,-,-,-
2025-05-01 21:49:23.288,BlockTimeStatus,Unknown,0,Unknown,-,1,-,-,-,-,-,-,-,-,-,-,-,-,-,-,-,-,-,-,-,-,-,-,-,-,-,-,-,-,202.14,97.86,9,5.52,-,-,-,-,-,-,-,-,-,-,-,-,-,-,-,-,-,-,-,-,-,-,-,-,-
2025-05-01 21:49:23.298,TrialStart,Unknown,0,Unknown,-,1,-,12,-,-,-,-,-,-,-,-,-,-,-,-,-,-,-,-,-,-,-,-,-,-,-,-,-,-,-,-,-,-,-,-,-,-,-,-,-,-,-,-,-,-,-,-,-,-,-,-,-,-,-,-,-,-,-
2025-05-01 21:49:23.504,InfoMessage,Unknown,0,Unknown,-,-,-,-,-,-,-,-,-,-,-,-,-,-,-,-,-,-,-,-,-,-,-,-,-,-,-,-,-,-,-,-,-,-,-,-,-,-,-,-,-,-,-,-,-,-,-,-,-,-,-,-,-,-,-,-,-,-,-
2025-05-01 21:49:25.976,ScoreUpdate,Unknown,0,Unknown,False,1,-,12,-,-,-,-,-,-,0,10,0,-,-,-,-,-,-,-,-,-,-,-,-,-,-,-,-,-,-,-,-,-,-,-,-,-,-,-,-,-,-,-,-,-,-,-,-,-,-,-,-,-,-,-,-,-,-
2025-05-01 21:49:25.979,DecisionOutcome,Unknown,0,Unknown,False,1,LowHighRatio,12,3,0,NoDecision,2.500,Timeout,False,0,10,0,0.000,-,-,-,-,-,-,-,-,-,0,-,-1.000,False,0.1,-,-,199.47,100.53,9,5.37,-,-,-,-,-,-,-,-,-,-,-,-,-,-,-,-,-,-,-,-,-,-,-,-,-
2025-05-01 21:49:25.980,PenaltyStart,Unknown,0,Unknown,-,-,-,12,-,-,-,-,-,-,-,-,-,-,-,-,-,-,-,-,-,-,-,-,-,-,-,-,NoDecision,5,-,-,-,-,-,-,-,-,-,-,-,-,-,-,-,-,-,-,-,-,-,-,-,-,-,-,-,-,-
2025-05-01 21:49:30.011,BlockTimeStatus,Unknown,0,Unknown,-,1,-,-,-,-,-,-,-,-,-,-,-,-,-,-,-,-,-,-,-,-,-,-,-,-,-,-,-,-,195.44,104.56,9,5.16,-,-,-,-,-,-,-,-,-,-,-,-,-,-,-,-,-,-,-,-,-,-,-,-,-
2025-05-01 21:49:31.273,BlockTimeStatus,Unknown,0,Unknown,-,1,-,-,-,-,-,-,-,-,-,-,-,-,-,-,-,-,-,-,-,-,-,-,-,-,-,-,-,-,194.17,105.83,10,5.67,-,-,-,-,-,-,-,-,-,-,-,-,-,-,-,-,-,-,-,-,-,-,-,-,-
2025-05-01 21:49:31.283,TrialStart,Unknown,0,Unknown,-,1,-,13,-,-,-,-,-,-,-,-,-,-,-,-,-,-,-,-,-,-,-,-,-,-,-,-,-,-,-,-,-,-,-,-,-,-,-,-,-,-,-,-,-,-,-,-,-,-,-,-,-,-,-,-,-,-,-
2025-05-01 21:49:31.491,InfoMessage,Unknown,0,Unknown,-,-,-,-,-,-,-,-,-,-,-,-,-,-,-,-,-,-,-,-,-,-,-,-,-,-,-,-,-,-,-,-,-,-,-,-,-,-,-,-,-,-,-,-,-,-,-,-,-,-,-,-,-,-,-,-,-,-,-
2025-05-01 21:49:33.965,ScoreUpdate,Unknown,0,Unknown,False,1,-,13,-,-,-,-,-,-,0,10,0,-,-,-,-,-,-,-,-,-,-,-,-,-,-,-,-,-,-,-,-,-,-,-,-,-,-,-,-,-,-,-,-,-,-,-,-,-,-,-,-,-,-,-,-,-,-
2025-05-01 21:49:33.967,DecisionOutcome,Unknown,0,Unknown,False,1,LowHighRatio,13,1,0,NoDecision,2.500,Timeout,False,0,10,0,0.000,-,-,-,-,-,-,-,-,-,0,-,-1.000,False,0.1,-,-,191.49,108.51,10,5.53,-,-,-,-,-,-,-,-,-,-,-,-,-,-,-,-,-,-,-,-,-,-,-,-,-
2025-05-01 21:49:33.968,PenaltyStart,Unknown,0,Unknown,-,-,-,13,-,-,-,-,-,-,-,-,-,-,-,-,-,-,-,-,-,-,-,-,-,-,-,-,NoDecision,5,-,-,-,-,-,-,-,-,-,-,-,-,-,-,-,-,-,-,-,-,-,-,-,-,-,-,-,-,-
2025-05-01 21:49:39.262,BlockTimeStatus,Unknown,0,Unknown,-,1,-,-,-,-,-,-,-,-,-,-,-,-,-,-,-,-,-,-,-,-,-,-,-,-,-,-,-,-,186.20,113.80,11,5.80,-,-,-,-,-,-,-,-,-,-,-,-,-,-,-,-,-,-,-,-,-,-,-,-,-
2025-05-01 21:49:39.273,TrialStart,Unknown,0,Unknown,-,1,-,14,-,-,-,-,-,-,-,-,-,-,-,-,-,-,-,-,-,-,-,-,-,-,-,-,-,-,-,-,-,-,-,-,-,-,-,-,-,-,-,-,-,-,-,-,-,-,-,-,-,-,-,-,-,-,-
2025-05-01 21:49:39.502,InfoMessage,Unknown,0,Unknown,-,-,-,-,-,-,-,-,-,-,-,-,-,-,-,-,-,-,-,-,-,-,-,-,-,-,-,-,-,-,-,-,-,-,-,-,-,-,-,-,-,-,-,-,-,-,-,-,-,-,-,-,-,-,-,-,-,-,-
2025-05-01 21:49:40.011,BlockTimeStatus,Unknown,0,Unknown,-,1,-,-,-,-,-,-,-,-,-,-,-,-,-,-,-,-,-,-,-,-,-,-,-,-,-,-,-,-,185.46,114.54,11,5.76,-,-,-,-,-,-,-,-,-,-,-,-,-,-,-,-,-,-,-,-,-,-,-,-,-
2025-05-01 21:49:41.977,ScoreUpdate,Unknown,0,Unknown,False,1,-,14,-,-,-,-,-,-,0,10,0,-,-,-,-,-,-,-,-,-,-,-,-,-,-,-,-,-,-,-,-,-,-,-,-,-,-,-,-,-,-,-,-,-,-,-,-,-,-,-,-,-,-,-,-,-,-
2025-05-01 21:49:41.982,DecisionOutcome,Unknown,0,Unknown,False,1,LowHighRatio,14,3,0,NoDecision,2.500,Timeout,False,0,10,0,0.000,-,-,-,-,-,-,-,-,-,0,-,-1.000,False,0.1,-,-,183.50,116.50,11,5.67,-,-,-,-,-,-,-,-,-,-,-,-,-,-,-,-,-,-,-,-,-,-,-,-,-
2025-05-01 21:49:41.984,PenaltyStart,Unknown,0,Unknown,-,-,-,14,-,-,-,-,-,-,-,-,-,-,-,-,-,-,-,-,-,-,-,-,-,-,-,-,NoDecision,5,-,-,-,-,-,-,-,-,-,-,-,-,-,-,-,-,-,-,-,-,-,-,-,-,-,-,-,-,-
2025-05-01 21:49:47.364,BlockTimeStatus,Unknown,0,Unknown,-,1,-,-,-,-,-,-,-,-,-,-,-,-,-,-,-,-,-,-,-,-,-,-,-,-,-,-,-,-,178.12,121.88,12,5.91,-,-,-,-,-,-,-,-,-,-,-,-,-,-,-,-,-,-,-,-,-,-,-,-,-
2025-05-01 21:49:47.375,TrialStart,Unknown,0,Unknown,-,1,-,15,-,-,-,-,-,-,-,-,-,-,-,-,-,-,-,-,-,-,-,-,-,-,-,-,-,-,-,-,-,-,-,-,-,-,-,-,-,-,-,-,-,-,-,-,-,-,-,-,-,-,-,-,-,-,-
2025-05-01 21:49:47.578,InfoMessage,Unknown,0,Unknown,-,-,-,-,-,-,-,-,-,-,-,-,-,-,-,-,-,-,-,-,-,-,-,-,-,-,-,-,-,-,-,-,-,-,-,-,-,-,-,-,-,-,-,-,-,-,-,-,-,-,-,-,-,-,-,-,-,-,-
2025-05-01 21:49:50.011,BlockTimeStatus,Unknown,0,Unknown,-,1,-,-,-,-,-,-,-,-,-,-,-,-,-,-,-,-,-,-,-,-,-,-,-,-,-,-,-,-,175.49,124.51,12,5.78,-,-,-,-,-,-,-,-,-,-,-,-,-,-,-,-,-,-,-,-,-,-,-,-,-
2025-05-01 21:49:50.062,ScoreUpdate,Unknown,0,Unknown,False,1,-,15,-,-,-,-,-,-,0,10,0,-,-,-,-,-,-,-,-,-,-,-,-,-,-,-,-,-,-,-,-,-,-,-,-,-,-,-,-,-,-,-,-,-,-,-,-,-,-,-,-,-,-,-,-,-,-
2025-05-01 21:49:50.065,DecisionOutcome,Unknown,0,Unknown,False,1,LowHighRatio,15,2,0,NoDecision,2.500,Timeout,False,0,10,0,0.000,-,-,-,-,-,-,-,-,-,0,-,-1.000,False,0.1,-,-,175.43,124.57,12,5.78,-,-,-,-,-,-,-,-,-,-,-,-,-,-,-,-,-,-,-,-,-,-,-,-,-
2025-05-01 21:49:50.065,PenaltyStart,Unknown,0,Unknown,-,-,-,15,-,-,-,-,-,-,-,-,-,-,-,-,-,-,-,-,-,-,-,-,-,-,-,-,NoDecision,5,-,-,-,-,-,-,-,-,-,-,-,-,-,-,-,-,-,-,-,-,-,-,-,-,-,-,-,-,-
2025-05-01 21:49:55.376,BlockTimeStatus,Unknown,0,Unknown,-,1,-,-,-,-,-,-,-,-,-,-,-,-,-,-,-,-,-,-,-,-,-,-,-,-,-,-,-,-,170.13,129.87,13,6.01,-,-,-,-,-,-,-,-,-,-,-,-,-,-,-,-,-,-,-,-,-,-,-,-,-
2025-05-01 21:49:55.386,TrialStart,Unknown,0,Unknown,-,1,-,16,-,-,-,-,-,-,-,-,-,-,-,-,-,-,-,-,-,-,-,-,-,-,-,-,-,-,-,-,-,-,-,-,-,-,-,-,-,-,-,-,-,-,-,-,-,-,-,-,-,-,-,-,-,-,-
2025-05-01 21:49:55.591,InfoMessage,Unknown,0,Unknown,-,-,-,-,-,-,-,-,-,-,-,-,-,-,-,-,-,-,-,-,-,-,-,-,-,-,-,-,-,-,-,-,-,-,-,-,-,-,-,-,-,-,-,-,-,-,-,-,-,-,-,-,-,-,-,-,-,-,-
2025-05-01 21:49:58.079,ScoreUpdate,Unknown,0,Unknown,False,1,-,16,-,-,-,-,-,-,0,10,0,-,-,-,-,-,-,-,-,-,-,-,-,-,-,-,-,-,-,-,-,-,-,-,-,-,-,-,-,-,-,-,-,-,-,-,-,-,-,-,-,-,-,-,-,-,-
2025-05-01 21:49:58.082,DecisionOutcome,Unknown,0,Unknown,False,1,LowHighRatio,16,3,0,NoDecision,2.500,Timeout,False,0,10,0,0.000,-,-,-,-,-,-,-,-,-,0,-,-1.000,False,0.1,-,-,167.43,132.57,13,5.88,-,-,-,-,-,-,-,-,-,-,-,-,-,-,-,-,-,-,-,-,-,-,-,-,-
2025-05-01 21:49:58.082,PenaltyStart,Unknown,0,Unknown,-,-,-,16,-,-,-,-,-,-,-,-,-,-,-,-,-,-,-,-,-,-,-,-,-,-,-,-,NoDecision,5,-,-,-,-,-,-,-,-,-,-,-,-,-,-,-,-,-,-,-,-,-,-,-,-,-,-,-,-,-
2025-05-01 21:50:00.011,BlockTimeStatus,Unknown,0,Unknown,-,1,-,-,-,-,-,-,-,-,-,-,-,-,-,-,-,-,-,-,-,-,-,-,-,-,-,-,-,-,165.51,134.49,13,5.80,-,-,-,-,-,-,-,-,-,-,-,-,-,-,-,-,-,-,-,-,-,-,-,-,-
2025-05-01 21:50:03.381,BlockTimeStatus,Unknown,0,Unknown,-,1,-,-,-,-,-,-,-,-,-,-,-,-,-,-,-,-,-,-,-,-,-,-,-,-,-,-,-,-,162.14,137.86,14,6.09,-,-,-,-,-,-,-,-,-,-,-,-,-,-,-,-,-,-,-,-,-,-,-,-,-
2025-05-01 21:50:03.390,TrialStart,Unknown,0,Unknown,-,1,-,17,-,-,-,-,-,-,-,-,-,-,-,-,-,-,-,-,-,-,-,-,-,-,-,-,-,-,-,-,-,-,-,-,-,-,-,-,-,-,-,-,-,-,-,-,-,-,-,-,-,-,-,-,-,-,-
2025-05-01 21:50:03.592,InfoMessage,Unknown,0,Unknown,-,-,-,-,-,-,-,-,-,-,-,-,-,-,-,-,-,-,-,-,-,-,-,-,-,-,-,-,-,-,-,-,-,-,-,-,-,-,-,-,-,-,-,-,-,-,-,-,-,-,-,-,-,-,-,-,-,-,-
2025-05-01 21:50:06.076,ScoreUpdate,Unknown,0,Unknown,False,1,-,17,-,-,-,-,-,-,0,10,0,-,-,-,-,-,-,-,-,-,-,-,-,-,-,-,-,-,-,-,-,-,-,-,-,-,-,-,-,-,-,-,-,-,-,-,-,-,-,-,-,-,-,-,-,-,-
2025-05-01 21:50:06.079,DecisionOutcome,Unknown,0,Unknown,False,1,LowHighRatio,17,2,0,NoDecision,2.500,Timeout,False,0,10,0,0.000,-,-,-,-,-,-,-,-,-,0,-,-1.000,False,0.1,-,-,159.45,140.55,14,5.98,-,-,-,-,-,-,-,-,-,-,-,-,-,-,-,-,-,-,-,-,-,-,-,-,-
2025-05-01 21:50:06.080,PenaltyStart,Unknown,0,Unknown,-,-,-,17,-,-,-,-,-,-,-,-,-,-,-,-,-,-,-,-,-,-,-,-,-,-,-,-,NoDecision,5,-,-,-,-,-,-,-,-,-,-,-,-,-,-,-,-,-,-,-,-,-,-,-,-,-,-,-,-,-
2025-05-01 21:50:10.009,BlockTimeStatus,Unknown,0,Unknown,-,1,-,-,-,-,-,-,-,-,-,-,-,-,-,-,-,-,-,-,-,-,-,-,-,-,-,-,-,-,155.52,144.48,14,5.81,-,-,-,-,-,-,-,-,-,-,-,-,-,-,-,-,-,-,-,-,-,-,-,-,-
2025-05-01 21:50:11.378,BlockTimeStatus,Unknown,0,Unknown,-,1,-,-,-,-,-,-,-,-,-,-,-,-,-,-,-,-,-,-,-,-,-,-,-,-,-,-,-,-,154.16,145.84,15,6.17,-,-,-,-,-,-,-,-,-,-,-,-,-,-,-,-,-,-,-,-,-,-,-,-,-
2025-05-01 21:50:11.388,TrialStart,Unknown,0,Unknown,-,1,-,18,-,-,-,-,-,-,-,-,-,-,-,-,-,-,-,-,-,-,-,-,-,-,-,-,-,-,-,-,-,-,-,-,-,-,-,-,-,-,-,-,-,-,-,-,-,-,-,-,-,-,-,-,-,-,-
2025-05-01 21:50:11.604,InfoMessage,Unknown,0,Unknown,-,-,-,-,-,-,-,-,-,-,-,-,-,-,-,-,-,-,-,-,-,-,-,-,-,-,-,-,-,-,-,-,-,-,-,-,-,-,-,-,-,-,-,-,-,-,-,-,-,-,-,-,-,-,-,-,-,-,-
2025-05-01 21:50:14.086,ScoreUpdate,Unknown,0,Unknown,False,1,-,18,-,-,-,-,-,-,0,10,0,-,-,-,-,-,-,-,-,-,-,-,-,-,-,-,-,-,-,-,-,-,-,-,-,-,-,-,-,-,-,-,-,-,-,-,-,-,-,-,-,-,-,-,-,-,-
2025-05-01 21:50:14.089,DecisionOutcome,Unknown,0,Unknown,False,1,LowHighRatio,18,3,0,NoDecision,2.500,Timeout,False,0,10,0,0.000,-,-,-,-,-,-,-,-,-,0,-,-1.000,False,0.1,-,-,151.46,148.54,15,6.06,-,-,-,-,-,-,-,-,-,-,-,-,-,-,-,-,-,-,-,-,-,-,-,-,-
2025-05-01 21:50:14.090,PenaltyStart,Unknown,0,Unknown,-,-,-,18,-,-,-,-,-,-,-,-,-,-,-,-,-,-,-,-,-,-,-,-,-,-,-,-,NoDecision,5,-,-,-,-,-,-,-,-,-,-,-,-,-,-,-,-,-,-,-,-,-,-,-,-,-,-,-,-,-
2025-05-01 21:50:19.404,BlockTimeStatus,Unknown,0,Unknown,-,1,-,-,-,-,-,-,-,-,-,-,-,-,-,-,-,-,-,-,-,-,-,-,-,-,-,-,-,-,146.15,153.85,16,6.24,-,-,-,-,-,-,-,-,-,-,-,-,-,-,-,-,-,-,-,-,-,-,-,-,-
2025-05-01 21:50:19.422,TrialStart,Unknown,0,Unknown,-,1,-,19,-,-,-,-,-,-,-,-,-,-,-,-,-,-,-,-,-,-,-,-,-,-,-,-,-,-,-,-,-,-,-,-,-,-,-,-,-,-,-,-,-,-,-,-,-,-,-,-,-,-,-,-,-,-,-
2025-05-01 21:50:19.699,InfoMessage,Unknown,0,Unknown,-,-,-,-,-,-,-,-,-,-,-,-,-,-,-,-,-,-,-,-,-,-,-,-,-,-,-,-,-,-,-,-,-,-,-,-,-,-,-,-,-,-,-,-,-,-,-,-,-,-,-,-,-,-,-,-,-,-,-
2025-05-01 21:50:20.010,BlockTimeStatus,Unknown,0,Unknown,-,1,-,-,-,-,-,-,-,-,-,-,-,-,-,-,-,-,-,-,-,-,-,-,-,-,-,-,-,-,145.56,154.44,16,6.22,-,-,-,-,-,-,-,-,-,-,-,-,-,-,-,-,-,-,-,-,-,-,-,-,-
2025-05-01 21:50:22.170,ScoreUpdate,Unknown,0,Unknown,False,1,-,19,-,-,-,-,-,-,0,10,0,-,-,-,-,-,-,-,-,-,-,-,-,-,-,-,-,-,-,-,-,-,-,-,-,-,-,-,-,-,-,-,-,-,-,-,-,-,-,-,-,-,-,-,-,-,-
2025-05-01 21:50:22.173,DecisionOutcome,Unknown,0,Unknown,False,1,LowHighRatio,19,1,0,NoDecision,2.500,Timeout,False,0,10,0,0.000,-,-,-,-,-,-,-,-,-,0,-,-1.000,False,0.1,-,-,143.40,156.60,16,6.13,-,-,-,-,-,-,-,-,-,-,-,-,-,-,-,-,-,-,-,-,-,-,-,-,-
2025-05-01 21:50:22.174,PenaltyStart,Unknown,0,Unknown,-,-,-,19,-,-,-,-,-,-,-,-,-,-,-,-,-,-,-,-,-,-,-,-,-,-,-,-,NoDecision,5,-,-,-,-,-,-,-,-,-,-,-,-,-,-,-,-,-,-,-,-,-,-,-,-,-,-,-,-,-
2025-05-01 21:50:27.481,BlockTimeStatus,Unknown,0,Unknown,-,1,-,-,-,-,-,-,-,-,-,-,-,-,-,-,-,-,-,-,-,-,-,-,-,-,-,-,-,-,138.09,161.91,17,6.30,-,-,-,-,-,-,-,-,-,-,-,-,-,-,-,-,-,-,-,-,-,-,-,-,-
2025-05-01 21:50:27.501,TrialStart,Unknown,0,Unknown,-,1,-,20,-,-,-,-,-,-,-,-,-,-,-,-,-,-,-,-,-,-,-,-,-,-,-,-,-,-,-,-,-,-,-,-,-,-,-,-,-,-,-,-,-,-,-,-,-,-,-,-,-,-,-,-,-,-,-
2025-05-01 21:50:27.726,InfoMessage,Unknown,0,Unknown,-,-,-,-,-,-,-,-,-,-,-,-,-,-,-,-,-,-,-,-,-,-,-,-,-,-,-,-,-,-,-,-,-,-,-,-,-,-,-,-,-,-,-,-,-,-,-,-,-,-,-,-,-,-,-,-,-,-,-
2025-05-01 21:50:30.011,BlockTimeStatus,Unknown,0,Unknown,-,1,-,-,-,-,-,-,-,-,-,-,-,-,-,-,-,-,-,-,-,-,-,-,-,-,-,-,-,-,135.57,164.43,17,6.20,-,-,-,-,-,-,-,-,-,-,-,-,-,-,-,-,-,-,-,-,-,-,-,-,-
