Timestamp,EventType,ParticipantID,ParticipantAge,ParticipantGender,BlockNumber,TrialNumber,EffortLevel,RequiredPresses,DecisionType,DecisionTime,OutcomeType,RewardCollected,MovementDuration,TotalPresses,TotalScore,PracticeScore,AdditionalInfo,StartX,StartY,EndX,EndY,StepDuration,TirednessRating,ParticipantFeedback,PenaltyType,PenaltyDuration,RemainingTime,CompletedTrials,ElapsedTime,CalibrationPhase1,CalibrationPhase2,CalibrationPhase3,CalibrationMax,CalibrationAvg,CalibrationEasy,CalibrationMedium,CalibrationHard,CalibrationPhase1Rate,CalibrationPhase2Rate,CalibrationPhase3Rate,CalibrationMaxRate,Check1Score,Check2Score,Check3Score,ComprehensionScore,TotalCheckScore,FailedAttempts,ContinueButtonClicked,ButtonAction,RedirectURL,TrialRate,TotalBlocks,TrialsPerBlock,TotalTrials,BlockOrder,BlockDistribution,SetupTime,IsValidConfiguration,ConfigurationHash,IsPractice,StartTime,MessageType,Details,AverageRTForBlock,MedianRTForBlock,Duration,Points,Outcome,TotalMovementDuration,TotalButtonPresses,Collected,Time,CollisionTime,PressData,EndTime,Rating,Scale,ScaleDescription,Scene,TotalTime,FeedbackProvided,MovementDuration,TotalPresses,TrialDuration,Tag,PhaseNumber,TotalPresses,Duration,PressesPerSecond,Category,PhaseType,Phase1_Presses,Phase1_Rate,Phase2_Presses,Phase2_Rate,Phase3_Presses,Phase3_Rate,MaxPressRate,EasyLevel_Presses,MediumLevel_Presses,HardLevel_Presses,PressRange,PressRangePercentage,CheckPhase,QuestionNumber,QuestionType,QuestionText,SelectedAnswer,CorrectAnswer,IsCorrect,ResponseTime,PhaseType,Score,AverageTimePerQuestion,OldScore,NewScore,ResetReason,CurrentTotalScore,CurrentPracticeScore
2025-03-25 23:38:06.557,TrialStart,6639ba1a258d1a06a958a91d,18,Male,0,1,-,-,-,-,-,-,-,-,-,-,Practice,-,-,-,-,-,-,-,-,-,-,-,-,-,-,-,-,-,-,-,-,-,-,-,-,-,-,-,-,-,-,-,-,-,-,-,-,-,-,-,-,-,-,-,-,-,-,-,-,-,-,-,-,-,-,-,-,-,-,-,-,-,-,-,-,-,-,-
2025-03-25 23:38:08.455,DecisionOutcome,6639ba1a258d1a06a958a91d,18,Male,0,1,1,1,Skip,1.733,Skip,False,0.000,0,-,-,-,-,-,-,-,-,-,-,-,-,-,-,-,-,-,-,-,-,-,-,-,-,-,-,-,-,-,-,-,-,-,-,-,-,-,-,-,-,-,-,-,-,-,True,-,-,-,-,-,-,-,-,-,-,-,-,-,-,-,-,-,-,-,-,-,-,-,-
2025-03-25 23:38:08.457,ScoreUpdate,6639ba1a258d1a06a958a91d,18,Male,0,1,-,-,-,-,-,-,-,-,0,0,-,-,-,-,-,-,-,-,-,-,-,-,-,-,-,-,-,-,-,-,-,-,-,-,-,-,-,-,-,-,-,-,-,-,-,-,-,-,-,-,-,-,-,True,-,-,-,-,-,-,0,PracticeScoreAdded,-,-,-,-,-,-,-,-,-,-,-,-,-,-,-,-
2025-03-25 23:38:11.612,InfoMessage,6639ba1a258d1a06a958a91d,18,Male,-,-,-,-,-,-,-,-,-,-,-,-,-,-,-,-,-,-,-,-,-,-,-,-,-,-,-,-,-,-,-,-,-,-,-,-,-,-,-,-,-,-,-,-,-,-,-,-,-,-,-,-,-,-,-,-,-,Practice Score Manager Destroyed,Final Practice Score: 0,-,-,-,-,-,-,-,-,-,-,-,-,-,-,-,-,-,-,-,-,-
2025-03-25 23:38:12.214,DecisionOutcome,6639ba1a258d1a06a958a91d,18,Male,0,2,3,5,Skip,0.593,Skip,False,0.000,0,-,-,-,-,-,-,-,-,-,-,-,-,-,-,-,-,-,-,-,-,-,-,-,-,-,-,-,-,-,-,-,-,-,-,-,-,-,-,-,-,-,-,-,-,-,True,-,-,-,-,-,-,-,-,-,-,-,-,-,-,-,-,-,-,-,-,-,-,-,-
2025-03-25 23:38:12.216,ScoreUpdate,6639ba1a258d1a06a958a91d,18,Male,0,2,-,-,-,-,-,-,-,-,0,0,-,-,-,-,-,-,-,-,-,-,-,-,-,-,-,-,-,-,-,-,-,-,-,-,-,-,-,-,-,-,-,-,-,-,-,-,-,-,-,-,-,-,-,True,-,-,-,-,-,-,0,PracticeScoreAdded,-,-,-,-,-,-,-,-,-,-,-,-,-,-,-,-
2025-03-25 23:38:15.352,InfoMessage,6639ba1a258d1a06a958a91d,18,Male,-,-,-,-,-,-,-,-,-,-,-,-,-,-,-,-,-,-,-,-,-,-,-,-,-,-,-,-,-,-,-,-,-,-,-,-,-,-,-,-,-,-,-,-,-,-,-,-,-,-,-,-,-,-,-,-,-,Practice Score Manager Destroyed,Final Practice Score: 0,-,-,-,-,-,-,-,-,-,-,-,-,-,-,-,-,-,-,-,-,-
2025-03-25 23:38:15.733,DecisionOutcome,6639ba1a258d1a06a958a91d,18,Male,0,3,1,1,Skip,0.379,Skip,False,0.000,0,-,-,-,-,-,-,-,-,-,-,-,-,-,-,-,-,-,-,-,-,-,-,-,-,-,-,-,-,-,-,-,-,-,-,-,-,-,-,-,-,-,-,-,-,-,True,-,-,-,-,-,-,-,-,-,-,-,-,-,-,-,-,-,-,-,-,-,-,-,-
2025-03-25 23:38:15.735,ScoreUpdate,6639ba1a258d1a06a958a91d,18,Male,0,3,-,-,-,-,-,-,-,-,0,0,-,-,-,-,-,-,-,-,-,-,-,-,-,-,-,-,-,-,-,-,-,-,-,-,-,-,-,-,-,-,-,-,-,-,-,-,-,-,-,-,-,-,-,True,-,-,-,-,-,-,0,PracticeScoreAdded,-,-,-,-,-,-,-,-,-,-,-,-,-,-,-,-
2025-03-25 23:38:18.992,InfoMessage,6639ba1a258d1a06a958a91d,18,Male,-,-,-,-,-,-,-,-,-,-,-,-,-,-,-,-,-,-,-,-,-,-,-,-,-,-,-,-,-,-,-,-,-,-,-,-,-,-,-,-,-,-,-,-,-,-,-,-,-,-,-,-,-,-,-,-,-,Practice Score Manager Destroyed,Final Practice Score: 0,-,-,-,-,-,-,-,-,-,-,-,-,-,-,-,-,-,-,-,-,-
2025-03-25 23:38:19.577,DecisionOutcome,6639ba1a258d1a06a958a91d,18,Male,0,4,3,5,Skip,0.559,Skip,False,0.000,0,-,-,-,-,-,-,-,-,-,-,-,-,-,-,-,-,-,-,-,-,-,-,-,-,-,-,-,-,-,-,-,-,-,-,-,-,-,-,-,-,-,-,-,-,-,True,-,-,-,-,-,-,-,-,-,-,-,-,-,-,-,-,-,-,-,-,-,-,-,-
2025-03-25 23:38:19.579,ScoreUpdate,6639ba1a258d1a06a958a91d,18,Male,0,4,-,-,-,-,-,-,-,-,0,0,-,-,-,-,-,-,-,-,-,-,-,-,-,-,-,-,-,-,-,-,-,-,-,-,-,-,-,-,-,-,-,-,-,-,-,-,-,-,-,-,-,-,-,True,-,-,-,-,-,-,0,PracticeScoreAdded,-,-,-,-,-,-,-,-,-,-,-,-,-,-,-,-
2025-03-25 23:38:22.716,InfoMessage,6639ba1a258d1a06a958a91d,18,Male,-,-,-,-,-,-,-,-,-,-,-,-,-,-,-,-,-,-,-,-,-,-,-,-,-,-,-,-,-,-,-,-,-,-,-,-,-,-,-,-,-,-,-,-,-,-,-,-,-,-,-,-,-,-,-,-,-,Practice Score Manager Destroyed,Final Practice Score: 0,-,-,-,-,-,-,-,-,-,-,-,-,-,-,-,-,-,-,-,-,-
2025-03-25 23:38:23.286,DecisionOutcome,6639ba1a258d1a06a958a91d,18,Male,0,5,2,3,Skip,0.566,Skip,False,0.000,0,-,-,-,-,-,-,-,-,-,-,-,-,-,-,-,-,-,-,-,-,-,-,-,-,-,-,-,-,-,-,-,-,-,-,-,-,-,-,-,-,-,-,-,-,-,True,-,-,-,-,-,-,-,-,-,-,-,-,-,-,-,-,-,-,-,-,-,-,-,-
2025-03-25 23:38:23.288,ScoreUpdate,6639ba1a258d1a06a958a91d,18,Male,0,5,-,-,-,-,-,-,-,-,0,0,-,-,-,-,-,-,-,-,-,-,-,-,-,-,-,-,-,-,-,-,-,-,-,-,-,-,-,-,-,-,-,-,-,-,-,-,-,-,-,-,-,-,-,True,-,-,-,-,-,-,0,PracticeScoreAdded,-,-,-,-,-,-,-,-,-,-,-,-,-,-,-,-
2025-03-25 23:38:26.421,InfoMessage,6639ba1a258d1a06a958a91d,18,Male,-,-,-,-,-,-,-,-,-,-,-,-,-,-,-,-,-,-,-,-,-,-,-,-,-,-,-,-,-,-,-,-,-,-,-,-,-,-,-,-,-,-,-,-,-,-,-,-,-,-,-,-,-,-,-,-,-,Practice Score Manager Destroyed,Final Practice Score: 0,-,-,-,-,-,-,-,-,-,-,-,-,-,-,-,-,-,-,-,-,-
2025-03-25 23:38:26.949,DecisionOutcome,6639ba1a258d1a06a958a91d,18,Male,0,6,2,3,Skip,0.527,Skip,False,0.000,0,-,-,-,-,-,-,-,-,-,-,-,-,-,-,-,-,-,-,-,-,-,-,-,-,-,-,-,-,-,-,-,-,-,-,-,-,-,-,-,-,-,-,-,-,-,True,-,-,-,-,-,-,-,-,-,-,-,-,-,-,-,-,-,-,-,-,-,-,-,-
2025-03-25 23:38:26.951,ScoreUpdate,6639ba1a258d1a06a958a91d,18,Male,0,6,-,-,-,-,-,-,-,-,0,0,-,-,-,-,-,-,-,-,-,-,-,-,-,-,-,-,-,-,-,-,-,-,-,-,-,-,-,-,-,-,-,-,-,-,-,-,-,-,-,-,-,-,-,True,-,-,-,-,-,-,0,PracticeScoreAdded,-,-,-,-,-,-,-,-,-,-,-,-,-,-,-,-
2025-03-25 23:38:30.084,InfoMessage,6639ba1a258d1a06a958a91d,18,Male,-,-,-,-,-,-,-,-,-,-,-,-,-,-,-,-,-,-,-,-,-,-,-,-,-,-,-,-,-,-,-,-,-,-,-,-,-,-,-,-,-,-,-,-,-,-,-,-,-,-,-,-,-,-,-,-,-,Practice Score Manager Destroyed,Final Practice Score: 0,-,-,-,-,-,-,-,-,-,-,-,-,-,-,-,-,-,-,-,-,-
2025-03-25 23:38:30.515,DecisionOutcome,6639ba1a258d1a06a958a91d,18,Male,0,7,1,1,Skip,0.426,Skip,False,0.000,0,-,-,-,-,-,-,-,-,-,-,-,-,-,-,-,-,-,-,-,-,-,-,-,-,-,-,-,-,-,-,-,-,-,-,-,-,-,-,-,-,-,-,-,-,-,True,-,-,-,-,-,-,-,-,-,-,-,-,-,-,-,-,-,-,-,-,-,-,-,-
2025-03-25 23:38:30.517,ScoreUpdate,6639ba1a258d1a06a958a91d,18,Male,0,7,-,-,-,-,-,-,-,-,0,0,-,-,-,-,-,-,-,-,-,-,-,-,-,-,-,-,-,-,-,-,-,-,-,-,-,-,-,-,-,-,-,-,-,-,-,-,-,-,-,-,-,-,-,True,-,-,-,-,-,-,0,PracticeScoreAdded,-,-,-,-,-,-,-,-,-,-,-,-,-,-,-,-
2025-03-25 23:38:33.649,InfoMessage,6639ba1a258d1a06a958a91d,18,Male,-,-,-,-,-,-,-,-,-,-,-,-,-,-,-,-,-,-,-,-,-,-,-,-,-,-,-,-,-,-,-,-,-,-,-,-,-,-,-,-,-,-,-,-,-,-,-,-,-,-,-,-,-,-,-,-,-,Practice Score Manager Destroyed,Final Practice Score: 0,-,-,-,-,-,-,-,-,-,-,-,-,-,-,-,-,-,-,-,-,-
2025-03-25 23:38:34.039,DecisionOutcome,6639ba1a258d1a06a958a91d,18,Male,0,8,3,5,Skip,0.390,Skip,False,0.000,0,-,-,-,-,-,-,-,-,-,-,-,-,-,-,-,-,-,-,-,-,-,-,-,-,-,-,-,-,-,-,-,-,-,-,-,-,-,-,-,-,-,-,-,-,-,True,-,-,-,-,-,-,-,-,-,-,-,-,-,-,-,-,-,-,-,-,-,-,-,-
2025-03-25 23:38:34.042,ScoreUpdate,6639ba1a258d1a06a958a91d,18,Male,0,8,-,-,-,-,-,-,-,-,0,0,-,-,-,-,-,-,-,-,-,-,-,-,-,-,-,-,-,-,-,-,-,-,-,-,-,-,-,-,-,-,-,-,-,-,-,-,-,-,-,-,-,-,-,True,-,-,-,-,-,-,0,PracticeScoreAdded,-,-,-,-,-,-,-,-,-,-,-,-,-,-,-,-
2025-03-25 23:38:37.174,InfoMessage,6639ba1a258d1a06a958a91d,18,Male,-,-,-,-,-,-,-,-,-,-,-,-,-,-,-,-,-,-,-,-,-,-,-,-,-,-,-,-,-,-,-,-,-,-,-,-,-,-,-,-,-,-,-,-,-,-,-,-,-,-,-,-,-,-,-,-,-,Practice Score Manager Destroyed,Final Practice Score: 0,-,-,-,-,-,-,-,-,-,-,-,-,-,-,-,-,-,-,-,-,-
2025-03-25 23:38:37.609,DecisionOutcome,6639ba1a258d1a06a958a91d,18,Male,0,9,1,1,Skip,0.434,Skip,False,0.000,0,-,-,-,-,-,-,-,-,-,-,-,-,-,-,-,-,-,-,-,-,-,-,-,-,-,-,-,-,-,-,-,-,-,-,-,-,-,-,-,-,-,-,-,-,-,True,-,-,-,-,-,-,-,-,-,-,-,-,-,-,-,-,-,-,-,-,-,-,-,-
2025-03-25 23:38:37.611,ScoreUpdate,6639ba1a258d1a06a958a91d,18,Male,0,9,-,-,-,-,-,-,-,-,0,0,-,-,-,-,-,-,-,-,-,-,-,-,-,-,-,-,-,-,-,-,-,-,-,-,-,-,-,-,-,-,-,-,-,-,-,-,-,-,-,-,-,-,-,True,-,-,-,-,-,-,0,PracticeScoreAdded,-,-,-,-,-,-,-,-,-,-,-,-,-,-,-,-
2025-03-25 23:38:40.745,InfoMessage,6639ba1a258d1a06a958a91d,18,Male,-,-,-,-,-,-,-,-,-,-,-,-,-,-,-,-,-,-,-,-,-,-,-,-,-,-,-,-,-,-,-,-,-,-,-,-,-,-,-,-,-,-,-,-,-,-,-,-,-,-,-,-,-,-,-,-,-,Practice Score Manager Destroyed,Final Practice Score: 0,-,-,-,-,-,-,-,-,-,-,-,-,-,-,-,-,-,-,-,-,-
2025-03-25 23:38:41.185,DecisionOutcome,6639ba1a258d1a06a958a91d,18,Male,0,10,3,5,Skip,0.435,Skip,False,0.000,0,-,-,-,-,-,-,-,-,-,-,-,-,-,-,-,-,-,-,-,-,-,-,-,-,-,-,-,-,-,-,-,-,-,-,-,-,-,-,-,-,-,-,-,-,-,True,-,-,-,-,-,-,-,-,-,-,-,-,-,-,-,-,-,-,-,-,-,-,-,-
2025-03-25 23:38:41.187,ScoreUpdate,6639ba1a258d1a06a958a91d,18,Male,0,10,-,-,-,-,-,-,-,-,0,0,-,-,-,-,-,-,-,-,-,-,-,-,-,-,-,-,-,-,-,-,-,-,-,-,-,-,-,-,-,-,-,-,-,-,-,-,-,-,-,-,-,-,-,True,-,-,-,-,-,-,0,PracticeScoreAdded,-,-,-,-,-,-,-,-,-,-,-,-,-,-,-,-
2025-03-25 23:38:44.330,InfoMessage,6639ba1a258d1a06a958a91d,18,Male,-,-,-,-,-,-,-,-,-,-,-,-,-,-,-,-,-,-,-,-,-,-,-,-,-,-,-,-,-,-,-,-,-,-,-,-,-,-,-,-,-,-,-,-,-,-,-,-,-,-,-,-,-,-,-,-,-,Practice Score Manager Destroyed,Final Practice Score: 0,-,-,-,-,-,-,-,-,-,-,-,-,-,-,-,-,-,-,-,-,-
2025-03-25 23:38:44.731,DecisionOutcome,6639ba1a258d1a06a958a91d,18,Male,0,11,2,3,Skip,0.400,Skip,False,0.000,0,-,-,-,-,-,-,-,-,-,-,-,-,-,-,-,-,-,-,-,-,-,-,-,-,-,-,-,-,-,-,-,-,-,-,-,-,-,-,-,-,-,-,-,-,-,True,-,-,-,-,-,-,-,-,-,-,-,-,-,-,-,-,-,-,-,-,-,-,-,-
2025-03-25 23:38:44.733,ScoreUpdate,6639ba1a258d1a06a958a91d,18,Male,0,11,-,-,-,-,-,-,-,-,0,0,-,-,-,-,-,-,-,-,-,-,-,-,-,-,-,-,-,-,-,-,-,-,-,-,-,-,-,-,-,-,-,-,-,-,-,-,-,-,-,-,-,-,-,True,-,-,-,-,-,-,0,PracticeScoreAdded,-,-,-,-,-,-,-,-,-,-,-,-,-,-,-,-
2025-03-25 23:38:47.866,InfoMessage,6639ba1a258d1a06a958a91d,18,Male,-,-,-,-,-,-,-,-,-,-,-,-,-,-,-,-,-,-,-,-,-,-,-,-,-,-,-,-,-,-,-,-,-,-,-,-,-,-,-,-,-,-,-,-,-,-,-,-,-,-,-,-,-,-,-,-,-,Practice Score Manager Destroyed,Final Practice Score: 0,-,-,-,-,-,-,-,-,-,-,-,-,-,-,-,-,-,-,-,-,-
2025-03-25 23:38:48.380,DecisionOutcome,6639ba1a258d1a06a958a91d,18,Male,0,12,2,3,Skip,0.509,Skip,False,0.000,0,-,-,-,-,-,-,-,-,-,-,-,-,-,-,-,-,-,-,-,-,-,-,-,-,-,-,-,-,-,-,-,-,-,-,-,-,-,-,-,-,-,-,-,-,-,True,-,-,-,-,-,-,-,-,-,-,-,-,-,-,-,-,-,-,-,-,-,-,-,-
2025-03-25 23:38:48.382,ScoreUpdate,6639ba1a258d1a06a958a91d,18,Male,0,12,-,-,-,-,-,-,-,-,0,0,-,-,-,-,-,-,-,-,-,-,-,-,-,-,-,-,-,-,-,-,-,-,-,-,-,-,-,-,-,-,-,-,-,-,-,-,-,-,-,-,-,-,-,True,-,-,-,-,-,-,0,PracticeScoreAdded,-,-,-,-,-,-,-,-,-,-,-,-,-,-,-,-
2025-03-25 23:38:52.015,InfoMessage,6639ba1a258d1a06a958a91d,18,Male,-,-,-,-,-,-,-,-,-,-,-,-,-,-,-,-,-,-,-,-,-,-,-,-,-,-,-,-,-,-,-,-,-,-,-,-,-,-,-,-,-,-,-,-,-,-,-,-,-,-,-,-,-,-,-,-,-,Practice Score Manager Destroyed,Final Practice Score: 0,-,-,-,-,-,-,-,-,-,-,-,-,-,-,-,-,-,-,-,-,-
