Timestamp,EventType,ParticipantID,ParticipantAge,ParticipantGender,BlockNumber,TrialNumber,EffortLevel,RequiredPresses,DecisionType,DecisionTime,OutcomeType,RewardCollected,MovementDuration,TotalPresses,TotalScore,PracticeScore,AdditionalInfo,StartX,StartY,EndX,EndY,StepDuration,TirednessRating,ParticipantFeedback,PenaltyType,PenaltyDuration,RemainingTime,CompletedTrials,ElapsedTime,CalibrationPhase1,CalibrationPhase2,CalibrationPhase3,CalibrationMax,CalibrationAvg,CalibrationEasy,CalibrationMedium,CalibrationHard,CalibrationPhase1Rate,CalibrationPhase2Rate,CalibrationPhase3Rate,CalibrationMaxRate,Check1Score,Check2Score,Check3Score,ComprehensionScore,TotalCheckScore,FailedAttempts,ContinueButtonClicked,ButtonAction,RedirectURL,TrialRate,TotalBlocks,TrialsPerBlock,TotalTrials,BlockOrder,BlockDistribution,SetupTime,IsValidConfiguration,ConfigurationHash,IsPractice,StartTime,MessageType,Details,AverageRTForBlock,MedianRTForBlock,Duration,Points,Outcome,TotalMovementDuration,TotalButtonPresses,Collected,Time,CollisionTime,PressData,EndTime,Rating,Scale,ScaleDescription,Scene,TotalTime,FeedbackProvided,MovementDuration,TotalPresses,TrialDuration,Tag,PhaseNumber,TotalPresses,Duration,PressesPerSecond,Category,PhaseType,Phase1_Presses,Phase1_Rate,Phase2_Presses,Phase2_Rate,Phase3_Presses,Phase3_Rate,MaxPressRate,EasyLevel_Presses,MediumLevel_Presses,HardLevel_Presses,PressRange,PressRangePercentage,CheckPhase,QuestionNumber,QuestionType,QuestionText,SelectedAnswer,CorrectAnswer,IsCorrect,ResponseTime,PhaseType,Score,AverageTimePerQuestion,OldScore,NewScore,ResetReason,CurrentTotalScore,CurrentPracticeScore
2025-03-26 09:22:56.059,TrialStart,33,33,Female,0,1,-,-,-,-,-,-,-,-,-,-,Practice,-,-,-,-,-,-,-,-,-,-,-,-,-,-,-,-,-,-,-,-,-,-,-,-,-,-,-,-,-,-,-,-,-,-,-,-,-,-,-,-,-,-,-,-,-,-,-,-,-,-,-,-,-,-,-,-,-,-,-,-,-,-,-,-,-,-,-
2025-03-26 09:22:58.494,PracticeTrialStart,33,33,Female,0,1,-,-,-,-,-,-,-,-,-,-,-,-,-,-,-,-,-,-,-,-,-,-,-,-,-,-,-,-,-,-,-,-,-,-,-,-,-,-,-,-,-,-,-,-,-,-,-,-,-,-,-,-,-,True,-,-,-,-,-,-,-,-,-,-,-,-,-,-,-,-,-,-,-,-,-,-,-,-
2025-03-26 09:22:59.835,MovementStart,33,33,Female,-,1,-,-,-,-,-,-,-,-,-,-,-,1.50,-0.50,-,-,-,-,-,-,-,-,-,-,-,-,-,-,-,-,-,-,-,-,-,-,-,-,-,-,-,-,-,-,-,-,-,-,-,-,-,-,-,-,-,-,-,-,-,-,-,-,-,-,-,-,-,-,-,-,-,-,-,-,-,-,-,-,-
2025-03-26 09:22:59.935,MovementStep,33,33,Female,-,1,-,-,-,-,-,-,-,-,-,-,-,1.50,-0.50,2.50,-0.50,0.101,-,-,-,-,-,-,-,-,-,-,-,-,-,-,-,-,-,-,-,-,-,-,-,-,-,-,-,-,-,-,-,-,-,-,-,-,-,-,-,-,-,-,-,-,-,-,-,-,-,-,-,-,-,-,-,-,-,-,-,-,-,-
2025-03-26 09:23:00.619,MovementStart,33,33,Female,-,1,-,-,-,-,-,-,-,-,-,-,-,2.50,-0.50,-,-,-,-,-,-,-,-,-,-,-,-,-,-,-,-,-,-,-,-,-,-,-,-,-,-,-,-,-,-,-,-,-,-,-,-,-,-,-,-,-,-,-,-,-,-,-,-,-,-,-,-,-,-,-,-,-,-,-,-,-,-,-,-,-
2025-03-26 09:23:00.721,MovementStep,33,33,Female,-,1,-,-,-,-,-,-,-,-,-,-,-,2.50,-0.50,3.50,-0.50,0.102,-,-,-,-,-,-,-,-,-,-,-,-,-,-,-,-,-,-,-,-,-,-,-,-,-,-,-,-,-,-,-,-,-,-,-,-,-,-,-,-,-,-,-,-,-,-,-,-,-,-,-,-,-,-,-,-,-,-,-,-,-,-
2025-03-26 09:23:01.402,MovementStart,33,33,Female,-,1,-,-,-,-,-,-,-,-,-,-,-,3.50,-0.50,-,-,-,-,-,-,-,-,-,-,-,-,-,-,-,-,-,-,-,-,-,-,-,-,-,-,-,-,-,-,-,-,-,-,-,-,-,-,-,-,-,-,-,-,-,-,-,-,-,-,-,-,-,-,-,-,-,-,-,-,-,-,-,-,-
2025-03-26 09:23:01.503,MovementStep,33,33,Female,-,1,-,-,-,-,-,-,-,-,-,-,-,3.50,-0.50,4.50,-0.50,0.100,-,-,-,-,-,-,-,-,-,-,-,-,-,-,-,-,-,-,-,-,-,-,-,-,-,-,-,-,-,-,-,-,-,-,-,-,-,-,-,-,-,-,-,-,-,-,-,-,-,-,-,-,-,-,-,-,-,-,-,-,-,-
2025-03-26 09:23:02.196,MovementStart,33,33,Female,-,1,-,-,-,-,-,-,-,-,-,-,-,4.50,-0.50,-,-,-,-,-,-,-,-,-,-,-,-,-,-,-,-,-,-,-,-,-,-,-,-,-,-,-,-,-,-,-,-,-,-,-,-,-,-,-,-,-,-,-,-,-,-,-,-,-,-,-,-,-,-,-,-,-,-,-,-,-,-,-,-,-
2025-03-26 09:23:02.296,MovementStep,33,33,Female,-,1,-,-,-,-,-,-,-,-,-,-,-,4.50,-0.50,5.50,-0.50,0.100,-,-,-,-,-,-,-,-,-,-,-,-,-,-,-,-,-,-,-,-,-,-,-,-,-,-,-,-,-,-,-,-,-,-,-,-,-,-,-,-,-,-,-,-,-,-,-,-,-,-,-,-,-,-,-,-,-,-,-,-,-,-
2025-03-26 09:23:02.959,MovementStart,33,33,Female,-,1,-,-,-,-,-,-,-,-,-,-,-,5.50,-0.50,-,-,-,-,-,-,-,-,-,-,-,-,-,-,-,-,-,-,-,-,-,-,-,-,-,-,-,-,-,-,-,-,-,-,-,-,-,-,-,-,-,-,-,-,-,-,-,-,-,-,-,-,-,-,-,-,-,-,-,-,-,-,-,-,-
2025-03-26 09:23:02.984,CollisionTime,33,33,Female,0,1,-,-,-,-,-,-,-,-,-,-,-,-,-,-,-,-,-,-,-,-,-,-,-,-,-,-,-,-,-,-,-,-,-,-,-,-,-,-,-,-,-,-,-,-,-,-,-,-,-,-,-,-,-,True,-,-,-,-,-,-,-,-,-,-,-,7.260,-,-,-,-,-,-,-,-,-,3.940,-,4.335
2025-03-26 09:23:02.986,DecisionOutcome,33,33,Female,0,1,3,5,Work,0.893,Success,True,3.940,25,-,-,-,-,-,-,-,-,-,-,-,-,-,-,-,-,-,-,-,-,-,-,-,-,-,-,-,-,-,-,-,-,-,-,-,-,-,-,-,-,-,-,-,-,-,True,-,-,-,-,-,-,-,-,-,-,-,-,-,-,-,-,-,-,-,-,-,-,-,-
2025-03-26 09:23:02.986,MovementComplete,33,33,Female,-,1,-,-,-,-,-,True,-,-,-,-,-,-,-,-,-,-,-,-,-,-,-,-,-,-,-,-,-,-,-,-,-,-,-,-,-,-,-,-,-,-,-,-,-,-,-,-,-,-,-,-,-,-,-,-,-,-,-,-,-,-,-,-,3.940,25,-,-,-,-,-,-,-,-,-,-,-,-,-,-
2025-03-26 09:23:02.987,RewardCollected,33,33,Female,-,1,-,-,-,-,-,-,-,-,-,-,-,-,-,-,-,-,-,-,-,-,-,-,-,-,-,-,-,-,-,-,-,-,-,-,-,-,-,-,-,-,-,-,-,-,-,-,-,-,-,-,-,-,-,-,-,-,-,-,-,-,-,-,-,-,True,-,-,-,-,-,-,-,-,-,-,-,-,-
2025-03-26 09:23:02.987,MovementDuration,33,33,Female,-,1,-,-,-,-,Success,-,-,-,-,-,-,-,-,-,-,-,-,-,-,-,-,-,-,-,-,-,-,-,-,-,-,-,-,-,-,-,-,-,-,-,-,-,-,-,-,-,-,-,-,-,-,-,-,-,-,-,-,-,-,-,-,-,-,-,-,-,-,-,-,-,-,-,-,-,-,3.940,-,-
2025-03-26 09:23:02.988,OutcomeType,33,33,Female,-,1,-,-,-,-,Success,-,-,-,-,-,-,-,-,-,-,-,-,-,-,-,-,-,-,-,-,-,-,-,-,-,-,-,-,-,-,-,-,-,-,-,-,-,-,-,-,-,-,-,-,-,-,-,-,-,-,-,-,-,-,-,-,-,-,-,-,-,-,-,-,-,-,-,-,-,-,-,-,-
2025-03-26 09:23:02.988,RewardCollected,33,33,Female,-,1,-,-,-,-,-,-,-,-,-,-,-,-,-,-,-,-,-,-,-,-,-,-,-,-,-,-,-,-,-,-,-,-,-,-,-,-,-,-,-,-,-,-,-,-,-,-,-,-,-,-,-,-,-,-,-,-,-,-,-,-,-,-,-,-,True,-,-,-,-,-,-,-,-,-,-,-,-,-
2025-03-26 09:23:02.991,ScoreUpdate,33,33,Female,0,1,-,-,-,-,-,-,-,-,0,10,-,-,-,-,-,-,-,-,-,-,-,-,-,-,-,-,-,-,-,-,-,-,-,-,-,-,-,-,-,-,-,-,-,-,-,-,-,-,-,-,-,-,-,True,-,-,-,-,-,-,10,PracticeScoreAdded,-,-,-,-,-,-,-,-,-,-,-,-,-,-,-,-
2025-03-26 09:23:02.992,ButtonPresses,33,33,Female,-,1,-,-,-,-,-,-,-,-,-,-,-,-,-,-,-,-,-,-,-,-,-,-,-,-,-,-,-,-,-,-,-,-,-,-,-,-,-,-,-,-,-,-,-,-,-,-,-,-,-,-,-,-,-,-,-,-,-,-,-,-,-,-,-,-,-,-,-,0.395:right|0.617:right|0.822:right|1.004:right|1.188:right|1.348:right|1.509:right|1.674:right|1.825:right|1.972:right|2.122:right|2.289:right|2.437:right|2.603:right|2.755:right|2.923:right|3.072:right|3.230:right|3.393:right|3.549:right|3.715:right|3.862:right|4.017:right|4.165:right|4.312:right,-,-,-,-,-,-,-,-,25,-
2025-03-26 09:23:03.060,MovementStep,33,33,Female,-,1,-,-,-,-,-,-,-,-,-,-,-,5.50,-0.50,6.50,-0.50,0.102,-,-,-,-,-,-,-,-,-,-,-,-,-,-,-,-,-,-,-,-,-,-,-,-,-,-,-,-,-,-,-,-,-,-,-,-,-,-,-,-,-,-,-,-,-,-,-,-,-,-,-,-,-,-,-,-,-,-,-,-,-,-
2025-03-26 09:23:03.858,InfoMessage,33,33,Female,-,-,-,-,-,-,-,-,-,-,-,-,-,-,-,-,-,-,-,-,-,-,-,-,-,-,-,-,-,-,-,-,-,-,-,-,-,-,-,-,-,-,-,-,-,-,-,-,-,-,-,-,-,-,-,-,-,Practice Score Manager Destroyed,Final Practice Score: 0,-,-,-,-,-,-,-,-,-,-,-,-,-,-,-,-,-,-,-,-,-
2025-03-26 09:23:05.866,PracticeTrialStart,33,33,Female,0,2,-,-,-,-,-,-,-,-,-,-,-,-,-,-,-,-,-,-,-,-,-,-,-,-,-,-,-,-,-,-,-,-,-,-,-,-,-,-,-,-,-,-,-,-,-,-,-,-,-,-,-,-,-,True,-,-,-,-,-,-,-,-,-,-,-,-,-,-,-,-,-,-,-,-,-,-,-,-
2025-03-26 09:23:07.143,MovementStart,33,33,Female,-,2,-,-,-,-,-,-,-,-,-,-,-,-4.50,3.50,-,-,-,-,-,-,-,-,-,-,-,-,-,-,-,-,-,-,-,-,-,-,-,-,-,-,-,-,-,-,-,-,-,-,-,-,-,-,-,-,-,-,-,-,-,-,-,-,-,-,-,-,-,-,-,-,-,-,-,-,-,-,-,-,-
2025-03-26 09:23:07.244,MovementStep,33,33,Female,-,2,-,-,-,-,-,-,-,-,-,-,-,-4.50,3.50,-3.50,3.50,0.102,-,-,-,-,-,-,-,-,-,-,-,-,-,-,-,-,-,-,-,-,-,-,-,-,-,-,-,-,-,-,-,-,-,-,-,-,-,-,-,-,-,-,-,-,-,-,-,-,-,-,-,-,-,-,-,-,-,-,-,-,-,-
2025-03-26 09:23:07.869,MovementStart,33,33,Female,-,2,-,-,-,-,-,-,-,-,-,-,-,-3.51,3.50,-,-,-,-,-,-,-,-,-,-,-,-,-,-,-,-,-,-,-,-,-,-,-,-,-,-,-,-,-,-,-,-,-,-,-,-,-,-,-,-,-,-,-,-,-,-,-,-,-,-,-,-,-,-,-,-,-,-,-,-,-,-,-,-,-
2025-03-26 09:23:07.968,MovementStep,33,33,Female,-,2,-,-,-,-,-,-,-,-,-,-,-,-3.51,3.50,-2.51,3.50,0.100,-,-,-,-,-,-,-,-,-,-,-,-,-,-,-,-,-,-,-,-,-,-,-,-,-,-,-,-,-,-,-,-,-,-,-,-,-,-,-,-,-,-,-,-,-,-,-,-,-,-,-,-,-,-,-,-,-,-,-,-,-,-
2025-03-26 09:23:08.614,MovementStart,33,33,Female,-,2,-,-,-,-,-,-,-,-,-,-,-,-2.51,3.50,-,-,-,-,-,-,-,-,-,-,-,-,-,-,-,-,-,-,-,-,-,-,-,-,-,-,-,-,-,-,-,-,-,-,-,-,-,-,-,-,-,-,-,-,-,-,-,-,-,-,-,-,-,-,-,-,-,-,-,-,-,-,-,-,-
2025-03-26 09:23:08.713,MovementStep,33,33,Female,-,2,-,-,-,-,-,-,-,-,-,-,-,-2.51,3.50,-1.51,3.50,0.100,-,-,-,-,-,-,-,-,-,-,-,-,-,-,-,-,-,-,-,-,-,-,-,-,-,-,-,-,-,-,-,-,-,-,-,-,-,-,-,-,-,-,-,-,-,-,-,-,-,-,-,-,-,-,-,-,-,-,-,-,-,-
2025-03-26 09:23:09.356,MovementStart,33,33,Female,-,2,-,-,-,-,-,-,-,-,-,-,-,-1.51,3.50,-,-,-,-,-,-,-,-,-,-,-,-,-,-,-,-,-,-,-,-,-,-,-,-,-,-,-,-,-,-,-,-,-,-,-,-,-,-,-,-,-,-,-,-,-,-,-,-,-,-,-,-,-,-,-,-,-,-,-,-,-,-,-,-,-
2025-03-26 09:23:09.458,MovementStep,33,33,Female,-,2,-,-,-,-,-,-,-,-,-,-,-,-1.51,3.50,-0.51,3.50,0.102,-,-,-,-,-,-,-,-,-,-,-,-,-,-,-,-,-,-,-,-,-,-,-,-,-,-,-,-,-,-,-,-,-,-,-,-,-,-,-,-,-,-,-,-,-,-,-,-,-,-,-,-,-,-,-,-,-,-,-,-,-,-
2025-03-26 09:23:10.088,MovementStart,33,33,Female,-,2,-,-,-,-,-,-,-,-,-,-,-,-0.51,3.50,-,-,-,-,-,-,-,-,-,-,-,-,-,-,-,-,-,-,-,-,-,-,-,-,-,-,-,-,-,-,-,-,-,-,-,-,-,-,-,-,-,-,-,-,-,-,-,-,-,-,-,-,-,-,-,-,-,-,-,-,-,-,-,-,-
2025-03-26 09:23:10.111,CollisionTime,33,33,Female,0,2,-,-,-,-,-,-,-,-,-,-,-,-,-,-,-,-,-,-,-,-,-,-,-,-,-,-,-,-,-,-,-,-,-,-,-,-,-,-,-,-,-,-,-,-,-,-,-,-,-,-,-,-,-,True,-,-,-,-,-,-,-,-,-,-,-,13.960,-,-,-,-,-,-,-,-,-,3.562,-,4.096
2025-03-26 09:23:10.112,DecisionOutcome,33,33,Female,0,2,3,5,Work,0.619,Success,True,3.562,25,-,-,-,-,-,-,-,-,-,-,-,-,-,-,-,-,-,-,-,-,-,-,-,-,-,-,-,-,-,-,-,-,-,-,-,-,-,-,-,-,-,-,-,-,-,True,-,-,-,-,-,-,-,-,-,-,-,-,-,-,-,-,-,-,-,-,-,-,-,-
2025-03-26 09:23:10.112,MovementComplete,33,33,Female,-,2,-,-,-,-,-,True,-,-,-,-,-,-,-,-,-,-,-,-,-,-,-,-,-,-,-,-,-,-,-,-,-,-,-,-,-,-,-,-,-,-,-,-,-,-,-,-,-,-,-,-,-,-,-,-,-,-,-,-,-,-,-,-,3.562,25,-,-,-,-,-,-,-,-,-,-,-,-,-,-
2025-03-26 09:23:10.113,RewardCollected,33,33,Female,-,2,-,-,-,-,-,-,-,-,-,-,-,-,-,-,-,-,-,-,-,-,-,-,-,-,-,-,-,-,-,-,-,-,-,-,-,-,-,-,-,-,-,-,-,-,-,-,-,-,-,-,-,-,-,-,-,-,-,-,-,-,-,-,-,-,True,-,-,-,-,-,-,-,-,-,-,-,-,-
2025-03-26 09:23:10.113,MovementDuration,33,33,Female,-,2,-,-,-,-,Success,-,-,-,-,-,-,-,-,-,-,-,-,-,-,-,-,-,-,-,-,-,-,-,-,-,-,-,-,-,-,-,-,-,-,-,-,-,-,-,-,-,-,-,-,-,-,-,-,-,-,-,-,-,-,-,-,-,-,-,-,-,-,-,-,-,-,-,-,-,-,3.562,-,-
2025-03-26 09:23:10.114,OutcomeType,33,33,Female,-,2,-,-,-,-,Success,-,-,-,-,-,-,-,-,-,-,-,-,-,-,-,-,-,-,-,-,-,-,-,-,-,-,-,-,-,-,-,-,-,-,-,-,-,-,-,-,-,-,-,-,-,-,-,-,-,-,-,-,-,-,-,-,-,-,-,-,-,-,-,-,-,-,-,-,-,-,-,-,-
2025-03-26 09:23:10.114,RewardCollected,33,33,Female,-,2,-,-,-,-,-,-,-,-,-,-,-,-,-,-,-,-,-,-,-,-,-,-,-,-,-,-,-,-,-,-,-,-,-,-,-,-,-,-,-,-,-,-,-,-,-,-,-,-,-,-,-,-,-,-,-,-,-,-,-,-,-,-,-,-,True,-,-,-,-,-,-,-,-,-,-,-,-,-
2025-03-26 09:23:10.116,ScoreUpdate,33,33,Female,0,2,-,-,-,-,-,-,-,-,0,20,-,-,-,-,-,-,-,-,-,-,-,-,-,-,-,-,-,-,-,-,-,-,-,-,-,-,-,-,-,-,-,-,-,-,-,-,-,-,-,-,-,-,-,True,-,-,-,-,-,-,10,PracticeScoreAdded,-,-,-,-,-,-,-,-,-,-,-,-,-,-,-,-
2025-03-26 09:23:10.117,ButtonPresses,33,33,Female,-,2,-,-,-,-,-,-,-,-,-,-,-,-,-,-,-,-,-,-,-,-,-,-,-,-,-,-,-,-,-,-,-,-,-,-,-,-,-,-,-,-,-,-,-,-,-,-,-,-,-,-,-,-,-,-,-,-,-,-,-,-,-,-,-,-,-,-,-,0.535:right|0.678:right|0.834:right|0.988:right|1.132:right|1.276:right|1.421:right|1.567:right|1.709:right|1.858:right|2.014:right|2.161:right|2.312:right|2.457:right|2.603:right|2.762:right|2.917:right|3.064:right|3.201:right|3.346:right|3.467:right|3.614:right|3.765:right|3.916:right|4.078:right,-,-,-,-,-,-,-,-,25,-
2025-03-26 09:23:10.190,MovementStep,33,33,Female,-,2,-,-,-,-,-,-,-,-,-,-,-,-0.51,3.50,0.49,3.50,0.102,-,-,-,-,-,-,-,-,-,-,-,-,-,-,-,-,-,-,-,-,-,-,-,-,-,-,-,-,-,-,-,-,-,-,-,-,-,-,-,-,-,-,-,-,-,-,-,-,-,-,-,-,-,-,-,-,-,-,-,-,-,-
2025-03-26 09:23:11.221,InfoMessage,33,33,Female,-,-,-,-,-,-,-,-,-,-,-,-,-,-,-,-,-,-,-,-,-,-,-,-,-,-,-,-,-,-,-,-,-,-,-,-,-,-,-,-,-,-,-,-,-,-,-,-,-,-,-,-,-,-,-,-,-,Practice Score Manager Destroyed,Final Practice Score: 0,-,-,-,-,-,-,-,-,-,-,-,-,-,-,-,-,-,-,-,-,-
2025-03-26 09:23:13.015,PracticeTrialStart,33,33,Female,0,3,-,-,-,-,-,-,-,-,-,-,-,-,-,-,-,-,-,-,-,-,-,-,-,-,-,-,-,-,-,-,-,-,-,-,-,-,-,-,-,-,-,-,-,-,-,-,-,-,-,-,-,-,-,True,-,-,-,-,-,-,-,-,-,-,-,-,-,-,-,-,-,-,-,-,-,-,-,-
2025-03-26 09:23:13.895,MovementStart,33,33,Female,-,3,-,-,-,-,-,-,-,-,-,-,-,-3.50,0.50,-,-,-,-,-,-,-,-,-,-,-,-,-,-,-,-,-,-,-,-,-,-,-,-,-,-,-,-,-,-,-,-,-,-,-,-,-,-,-,-,-,-,-,-,-,-,-,-,-,-,-,-,-,-,-,-,-,-,-,-,-,-,-,-,-
2025-03-26 09:23:13.994,MovementStep,33,33,Female,-,3,-,-,-,-,-,-,-,-,-,-,-,-3.50,0.50,-2.50,0.50,0.100,-,-,-,-,-,-,-,-,-,-,-,-,-,-,-,-,-,-,-,-,-,-,-,-,-,-,-,-,-,-,-,-,-,-,-,-,-,-,-,-,-,-,-,-,-,-,-,-,-,-,-,-,-,-,-,-,-,-,-,-,-,-
2025-03-26 09:23:14.372,MovementStart,33,33,Female,-,3,-,-,-,-,-,-,-,-,-,-,-,-2.50,0.50,-,-,-,-,-,-,-,-,-,-,-,-,-,-,-,-,-,-,-,-,-,-,-,-,-,-,-,-,-,-,-,-,-,-,-,-,-,-,-,-,-,-,-,-,-,-,-,-,-,-,-,-,-,-,-,-,-,-,-,-,-,-,-,-,-
2025-03-26 09:23:14.471,MovementStep,33,33,Female,-,3,-,-,-,-,-,-,-,-,-,-,-,-2.50,0.50,-1.50,0.50,0.099,-,-,-,-,-,-,-,-,-,-,-,-,-,-,-,-,-,-,-,-,-,-,-,-,-,-,-,-,-,-,-,-,-,-,-,-,-,-,-,-,-,-,-,-,-,-,-,-,-,-,-,-,-,-,-,-,-,-,-,-,-,-
2025-03-26 09:23:14.809,MovementStart,33,33,Female,-,3,-,-,-,-,-,-,-,-,-,-,-,-1.50,0.50,-,-,-,-,-,-,-,-,-,-,-,-,-,-,-,-,-,-,-,-,-,-,-,-,-,-,-,-,-,-,-,-,-,-,-,-,-,-,-,-,-,-,-,-,-,-,-,-,-,-,-,-,-,-,-,-,-,-,-,-,-,-,-,-,-
2025-03-26 09:23:14.910,MovementStep,33,33,Female,-,3,-,-,-,-,-,-,-,-,-,-,-,-1.50,0.50,-0.50,0.50,0.101,-,-,-,-,-,-,-,-,-,-,-,-,-,-,-,-,-,-,-,-,-,-,-,-,-,-,-,-,-,-,-,-,-,-,-,-,-,-,-,-,-,-,-,-,-,-,-,-,-,-,-,-,-,-,-,-,-,-,-,-,-,-
2025-03-26 09:23:15.264,MovementStart,33,33,Female,-,3,-,-,-,-,-,-,-,-,-,-,-,-0.50,0.50,-,-,-,-,-,-,-,-,-,-,-,-,-,-,-,-,-,-,-,-,-,-,-,-,-,-,-,-,-,-,-,-,-,-,-,-,-,-,-,-,-,-,-,-,-,-,-,-,-,-,-,-,-,-,-,-,-,-,-,-,-,-,-,-,-
2025-03-26 09:23:15.366,MovementStep,33,33,Female,-,3,-,-,-,-,-,-,-,-,-,-,-,-0.50,0.50,0.50,0.50,0.102,-,-,-,-,-,-,-,-,-,-,-,-,-,-,-,-,-,-,-,-,-,-,-,-,-,-,-,-,-,-,-,-,-,-,-,-,-,-,-,-,-,-,-,-,-,-,-,-,-,-,-,-,-,-,-,-,-,-,-,-,-,-
2025-03-26 09:23:15.726,MovementStart,33,33,Female,-,3,-,-,-,-,-,-,-,-,-,-,-,0.50,0.50,-,-,-,-,-,-,-,-,-,-,-,-,-,-,-,-,-,-,-,-,-,-,-,-,-,-,-,-,-,-,-,-,-,-,-,-,-,-,-,-,-,-,-,-,-,-,-,-,-,-,-,-,-,-,-,-,-,-,-,-,-,-,-,-,-
2025-03-26 09:23:15.749,CollisionTime,33,33,Female,0,3,-,-,-,-,-,-,-,-,-,-,-,-,-,-,-,-,-,-,-,-,-,-,-,-,-,-,-,-,-,-,-,-,-,-,-,-,-,-,-,-,-,-,-,-,-,-,-,-,-,-,-,-,-,True,-,-,-,-,-,-,-,-,-,-,-,19.180,-,-,-,-,-,-,-,-,-,2.155,-,2.590
2025-03-26 09:23:15.751,DecisionOutcome,33,33,Female,0,3,2,3,Work,0.409,Success,True,2.155,15,-,-,-,-,-,-,-,-,-,-,-,-,-,-,-,-,-,-,-,-,-,-,-,-,-,-,-,-,-,-,-,-,-,-,-,-,-,-,-,-,-,-,-,-,-,True,-,-,-,-,-,-,-,-,-,-,-,-,-,-,-,-,-,-,-,-,-,-,-,-
2025-03-26 09:23:15.751,MovementComplete,33,33,Female,-,3,-,-,-,-,-,True,-,-,-,-,-,-,-,-,-,-,-,-,-,-,-,-,-,-,-,-,-,-,-,-,-,-,-,-,-,-,-,-,-,-,-,-,-,-,-,-,-,-,-,-,-,-,-,-,-,-,-,-,-,-,-,-,2.155,15,-,-,-,-,-,-,-,-,-,-,-,-,-,-
2025-03-26 09:23:15.751,RewardCollected,33,33,Female,-,3,-,-,-,-,-,-,-,-,-,-,-,-,-,-,-,-,-,-,-,-,-,-,-,-,-,-,-,-,-,-,-,-,-,-,-,-,-,-,-,-,-,-,-,-,-,-,-,-,-,-,-,-,-,-,-,-,-,-,-,-,-,-,-,-,True,-,-,-,-,-,-,-,-,-,-,-,-,-
2025-03-26 09:23:15.752,MovementDuration,33,33,Female,-,3,-,-,-,-,Success,-,-,-,-,-,-,-,-,-,-,-,-,-,-,-,-,-,-,-,-,-,-,-,-,-,-,-,-,-,-,-,-,-,-,-,-,-,-,-,-,-,-,-,-,-,-,-,-,-,-,-,-,-,-,-,-,-,-,-,-,-,-,-,-,-,-,-,-,-,-,2.155,-,-
2025-03-26 09:23:15.752,OutcomeType,33,33,Female,-,3,-,-,-,-,Success,-,-,-,-,-,-,-,-,-,-,-,-,-,-,-,-,-,-,-,-,-,-,-,-,-,-,-,-,-,-,-,-,-,-,-,-,-,-,-,-,-,-,-,-,-,-,-,-,-,-,-,-,-,-,-,-,-,-,-,-,-,-,-,-,-,-,-,-,-,-,-,-,-
2025-03-26 09:23:15.752,RewardCollected,33,33,Female,-,3,-,-,-,-,-,-,-,-,-,-,-,-,-,-,-,-,-,-,-,-,-,-,-,-,-,-,-,-,-,-,-,-,-,-,-,-,-,-,-,-,-,-,-,-,-,-,-,-,-,-,-,-,-,-,-,-,-,-,-,-,-,-,-,-,True,-,-,-,-,-,-,-,-,-,-,-,-,-
2025-03-26 09:23:15.754,ScoreUpdate,33,33,Female,0,3,-,-,-,-,-,-,-,-,0,30,-,-,-,-,-,-,-,-,-,-,-,-,-,-,-,-,-,-,-,-,-,-,-,-,-,-,-,-,-,-,-,-,-,-,-,-,-,-,-,-,-,-,-,True,-,-,-,-,-,-,10,PracticeScoreAdded,-,-,-,-,-,-,-,-,-,-,-,-,-,-,-,-
2025-03-26 09:23:15.755,ButtonPresses,33,33,Female,-,3,-,-,-,-,-,-,-,-,-,-,-,-,-,-,-,-,-,-,-,-,-,-,-,-,-,-,-,-,-,-,-,-,-,-,-,-,-,-,-,-,-,-,-,-,-,-,-,-,-,-,-,-,-,-,-,-,-,-,-,-,-,-,-,-,-,-,-,0.435:right|0.586:right|0.736:right|0.900:right|1.058:right|1.214:right|1.363:right|1.510:right|1.651:right|1.803:right|1.961:right|2.106:right|2.255:right|2.406:right|2.567:right,-,-,-,-,-,-,-,-,15,-
2025-03-26 09:23:15.827,MovementStep,33,33,Female,-,3,-,-,-,-,-,-,-,-,-,-,-,0.50,0.50,1.50,0.50,0.102,-,-,-,-,-,-,-,-,-,-,-,-,-,-,-,-,-,-,-,-,-,-,-,-,-,-,-,-,-,-,-,-,-,-,-,-,-,-,-,-,-,-,-,-,-,-,-,-,-,-,-,-,-,-,-,-,-,-,-,-,-,-
2025-03-26 09:23:18.375,InfoMessage,33,33,Female,-,-,-,-,-,-,-,-,-,-,-,-,-,-,-,-,-,-,-,-,-,-,-,-,-,-,-,-,-,-,-,-,-,-,-,-,-,-,-,-,-,-,-,-,-,-,-,-,-,-,-,-,-,-,-,-,-,Practice Score Manager Destroyed,Final Practice Score: 0,-,-,-,-,-,-,-,-,-,-,-,-,-,-,-,-,-,-,-,-,-
2025-03-26 09:23:20.440,PracticeTrialStart,33,33,Female,0,4,-,-,-,-,-,-,-,-,-,-,-,-,-,-,-,-,-,-,-,-,-,-,-,-,-,-,-,-,-,-,-,-,-,-,-,-,-,-,-,-,-,-,-,-,-,-,-,-,-,-,-,-,-,True,-,-,-,-,-,-,-,-,-,-,-,-,-,-,-,-,-,-,-,-,-,-,-,-
2025-03-26 09:23:21.422,MovementStart,33,33,Female,-,4,-,-,-,-,-,-,-,-,-,-,-,7.50,3.50,-,-,-,-,-,-,-,-,-,-,-,-,-,-,-,-,-,-,-,-,-,-,-,-,-,-,-,-,-,-,-,-,-,-,-,-,-,-,-,-,-,-,-,-,-,-,-,-,-,-,-,-,-,-,-,-,-,-,-,-,-,-,-,-,-
2025-03-26 09:23:21.523,MovementStep,33,33,Female,-,4,-,-,-,-,-,-,-,-,-,-,-,7.50,3.50,6.50,3.50,0.101,-,-,-,-,-,-,-,-,-,-,-,-,-,-,-,-,-,-,-,-,-,-,-,-,-,-,-,-,-,-,-,-,-,-,-,-,-,-,-,-,-,-,-,-,-,-,-,-,-,-,-,-,-,-,-,-,-,-,-,-,-,-
2025-03-26 09:23:21.736,MovementStart,33,33,Female,-,4,-,-,-,-,-,-,-,-,-,-,-,6.50,3.50,-,-,-,-,-,-,-,-,-,-,-,-,-,-,-,-,-,-,-,-,-,-,-,-,-,-,-,-,-,-,-,-,-,-,-,-,-,-,-,-,-,-,-,-,-,-,-,-,-,-,-,-,-,-,-,-,-,-,-,-,-,-,-,-,-
2025-03-26 09:23:21.835,MovementStep,33,33,Female,-,4,-,-,-,-,-,-,-,-,-,-,-,6.50,3.50,5.50,3.50,0.100,-,-,-,-,-,-,-,-,-,-,-,-,-,-,-,-,-,-,-,-,-,-,-,-,-,-,-,-,-,-,-,-,-,-,-,-,-,-,-,-,-,-,-,-,-,-,-,-,-,-,-,-,-,-,-,-,-,-,-,-,-,-
2025-03-26 09:23:22.022,MovementStart,33,33,Female,-,4,-,-,-,-,-,-,-,-,-,-,-,5.54,3.50,-,-,-,-,-,-,-,-,-,-,-,-,-,-,-,-,-,-,-,-,-,-,-,-,-,-,-,-,-,-,-,-,-,-,-,-,-,-,-,-,-,-,-,-,-,-,-,-,-,-,-,-,-,-,-,-,-,-,-,-,-,-,-,-,-
2025-03-26 09:23:22.125,MovementStep,33,33,Female,-,4,-,-,-,-,-,-,-,-,-,-,-,5.54,3.50,4.54,3.50,0.103,-,-,-,-,-,-,-,-,-,-,-,-,-,-,-,-,-,-,-,-,-,-,-,-,-,-,-,-,-,-,-,-,-,-,-,-,-,-,-,-,-,-,-,-,-,-,-,-,-,-,-,-,-,-,-,-,-,-,-,-,-,-
2025-03-26 09:23:22.306,MovementStart,33,33,Female,-,4,-,-,-,-,-,-,-,-,-,-,-,4.54,3.50,-,-,-,-,-,-,-,-,-,-,-,-,-,-,-,-,-,-,-,-,-,-,-,-,-,-,-,-,-,-,-,-,-,-,-,-,-,-,-,-,-,-,-,-,-,-,-,-,-,-,-,-,-,-,-,-,-,-,-,-,-,-,-,-,-
2025-03-26 09:23:22.405,MovementStep,33,33,Female,-,4,-,-,-,-,-,-,-,-,-,-,-,4.54,3.50,3.54,3.50,0.100,-,-,-,-,-,-,-,-,-,-,-,-,-,-,-,-,-,-,-,-,-,-,-,-,-,-,-,-,-,-,-,-,-,-,-,-,-,-,-,-,-,-,-,-,-,-,-,-,-,-,-,-,-,-,-,-,-,-,-,-,-,-
2025-03-26 09:23:22.618,MovementStart,33,33,Female,-,4,-,-,-,-,-,-,-,-,-,-,-,3.54,3.50,-,-,-,-,-,-,-,-,-,-,-,-,-,-,-,-,-,-,-,-,-,-,-,-,-,-,-,-,-,-,-,-,-,-,-,-,-,-,-,-,-,-,-,-,-,-,-,-,-,-,-,-,-,-,-,-,-,-,-,-,-,-,-,-,-
2025-03-26 09:23:22.643,CollisionTime,33,33,Female,0,4,-,-,-,-,-,-,-,-,-,-,-,-,-,-,-,-,-,-,-,-,-,-,-,-,-,-,-,-,-,-,-,-,-,-,-,-,-,-,-,-,-,-,-,-,-,-,-,-,-,-,-,-,-,True,-,-,-,-,-,-,-,-,-,-,-,25.640,-,-,-,-,-,-,-,-,-,1.648,-,2.060
2025-03-26 09:23:22.644,DecisionOutcome,33,33,Female,0,4,1,2,Work,0.664,Success,True,1.648,11,-,-,-,-,-,-,-,-,-,-,-,-,-,-,-,-,-,-,-,-,-,-,-,-,-,-,-,-,-,-,-,-,-,-,-,-,-,-,-,-,-,-,-,-,-,True,-,-,-,-,-,-,-,-,-,-,-,-,-,-,-,-,-,-,-,-,-,-,-,-
2025-03-26 09:23:22.644,MovementComplete,33,33,Female,-,4,-,-,-,-,-,True,-,-,-,-,-,-,-,-,-,-,-,-,-,-,-,-,-,-,-,-,-,-,-,-,-,-,-,-,-,-,-,-,-,-,-,-,-,-,-,-,-,-,-,-,-,-,-,-,-,-,-,-,-,-,-,-,1.648,11,-,-,-,-,-,-,-,-,-,-,-,-,-,-
2025-03-26 09:23:22.645,RewardCollected,33,33,Female,-,4,-,-,-,-,-,-,-,-,-,-,-,-,-,-,-,-,-,-,-,-,-,-,-,-,-,-,-,-,-,-,-,-,-,-,-,-,-,-,-,-,-,-,-,-,-,-,-,-,-,-,-,-,-,-,-,-,-,-,-,-,-,-,-,-,True,-,-,-,-,-,-,-,-,-,-,-,-,-
2025-03-26 09:23:22.645,MovementDuration,33,33,Female,-,4,-,-,-,-,Success,-,-,-,-,-,-,-,-,-,-,-,-,-,-,-,-,-,-,-,-,-,-,-,-,-,-,-,-,-,-,-,-,-,-,-,-,-,-,-,-,-,-,-,-,-,-,-,-,-,-,-,-,-,-,-,-,-,-,-,-,-,-,-,-,-,-,-,-,-,-,1.648,-,-
2025-03-26 09:23:22.645,OutcomeType,33,33,Female,-,4,-,-,-,-,Success,-,-,-,-,-,-,-,-,-,-,-,-,-,-,-,-,-,-,-,-,-,-,-,-,-,-,-,-,-,-,-,-,-,-,-,-,-,-,-,-,-,-,-,-,-,-,-,-,-,-,-,-,-,-,-,-,-,-,-,-,-,-,-,-,-,-,-,-,-,-,-,-,-
2025-03-26 09:23:22.646,RewardCollected,33,33,Female,-,4,-,-,-,-,-,-,-,-,-,-,-,-,-,-,-,-,-,-,-,-,-,-,-,-,-,-,-,-,-,-,-,-,-,-,-,-,-,-,-,-,-,-,-,-,-,-,-,-,-,-,-,-,-,-,-,-,-,-,-,-,-,-,-,-,True,-,-,-,-,-,-,-,-,-,-,-,-,-
2025-03-26 09:23:22.648,ScoreUpdate,33,33,Female,0,4,-,-,-,-,-,-,-,-,0,40,-,-,-,-,-,-,-,-,-,-,-,-,-,-,-,-,-,-,-,-,-,-,-,-,-,-,-,-,-,-,-,-,-,-,-,-,-,-,-,-,-,-,-,True,-,-,-,-,-,-,10,PracticeScoreAdded,-,-,-,-,-,-,-,-,-,-,-,-,-,-,-,-
2025-03-26 09:23:22.649,ButtonPresses,33,33,Female,-,4,-,-,-,-,-,-,-,-,-,-,-,-,-,-,-,-,-,-,-,-,-,-,-,-,-,-,-,-,-,-,-,-,-,-,-,-,-,-,-,-,-,-,-,-,-,-,-,-,-,-,-,-,-,-,-,-,-,-,-,-,-,-,-,-,-,-,-,0.412:right|0.671:left|0.842:left|1.005:left|1.156:left|1.295:left|1.442:left|1.585:left|1.725:left|1.892:left|2.038:left,-,-,-,-,-,-,-,-,11,-
2025-03-26 09:23:22.718,MovementStep,33,33,Female,-,4,-,-,-,-,-,-,-,-,-,-,-,3.54,3.50,2.54,3.50,0.100,-,-,-,-,-,-,-,-,-,-,-,-,-,-,-,-,-,-,-,-,-,-,-,-,-,-,-,-,-,-,-,-,-,-,-,-,-,-,-,-,-,-,-,-,-,-,-,-,-,-,-,-,-,-,-,-,-,-,-,-,-,-
2025-03-26 09:23:25.260,InfoMessage,33,33,Female,-,-,-,-,-,-,-,-,-,-,-,-,-,-,-,-,-,-,-,-,-,-,-,-,-,-,-,-,-,-,-,-,-,-,-,-,-,-,-,-,-,-,-,-,-,-,-,-,-,-,-,-,-,-,-,-,-,Practice Score Manager Destroyed,Final Practice Score: 40,-,-,-,-,-,-,-,-,-,-,-,-,-,-,-,-,-,-,-,-,-
