Timestamp,EventType,ParticipantID,ParticipantAge,ParticipantGender,BlockNumber,TrialNumber,EffortLevel,RequiredPresses,DecisionType,DecisionTime,OutcomeType,RewardCollected,MovementDuration,TotalPresses,TotalScore,PracticeScore,AdditionalInfo,StartX,StartY,EndX,EndY,StepDuration,TirednessRating,ParticipantFeedback,PenaltyType,PenaltyDuration,RemainingTime,CompletedTrials,ElapsedTime,CalibrationPhase1,CalibrationPhase2,CalibrationPhase3,CalibrationMax,CalibrationAvg,CalibrationEasy,CalibrationMedium,CalibrationHard,CalibrationPhase1Rate,CalibrationPhase2Rate,CalibrationPhase3Rate,CalibrationMaxRate,Check1Score,Check2Score,Check3Score,ComprehensionScore,TotalCheckScore,FailedAttempts,ContinueButtonClicked,ButtonAction,RedirectURL,TrialRate,TotalBlocks,TrialsPerBlock,TotalTrials,BlockOrder,BlockDistribution,SetupTime,IsValidConfiguration,ConfigurationHash,IsPractice,StartTime,MessageType,Details,AverageRTForBlock,MedianRTForBlock,Duration,Points,Outcome,TotalMovementDuration,TotalButtonPresses,Collected,Time,CollisionTime,PressData,EndTime,Rating,Scale,ScaleDescription,Scene,TotalTime,FeedbackProvided,MovementDuration,TotalPresses,TrialDuration,Tag,PhaseNumber,TotalPresses,Duration,PressesPerSecond,Category,PhaseType,Phase1_Presses,Phase1_Rate,Phase2_Presses,Phase2_Rate,Phase3_Presses,Phase3_Rate,MaxPressRate,EasyLevel_Presses,MediumLevel_Presses,HardLevel_Presses,PressRange,PressRangePercentage,CheckPhase,QuestionNumber,QuestionType,QuestionText,SelectedAnswer,CorrectAnswer,IsCorrect,ResponseTime,PhaseType,Score,AverageTimePerQuestion,OldScore,NewScore,ResetReason,CurrentTotalScore,CurrentPracticeScore
2025-03-25 13:23:12.315,TrialStart,6639ba1a258d1a06a958a91d,18,Male,0,1,-,-,-,-,-,-,-,-,-,-,Practice,-,-,-,-,-,-,-,-,-,-,-,-,-,-,-,-,-,-,-,-,-,-,-,-,-,-,-,-,-,-,-,-,-,-,-,-,-,-,-,-,-,-,-,-,-,-,-,-,-,-,-,-,-,-,-,-,-,-,-,-,-,-,-,-,-,-,-
2025-03-25 13:23:15.716,PracticeTrialStart,6639ba1a258d1a06a958a91d,18,Male,0,1,-,-,-,-,-,-,-,-,-,-,-,-,-,-,-,-,-,-,-,-,-,-,-,-,-,-,-,-,-,-,-,-,-,-,-,-,-,-,-,-,-,-,-,-,-,-,-,-,-,-,-,-,-,True,-,-,-,-,-,-,-,-,-,-,-,-,-,-,-,-,-,-,-,-,-,-,-,-
2025-03-25 13:23:16.544,MovementStart,6639ba1a258d1a06a958a91d,18,Male,-,1,-,-,-,-,-,-,-,-,-,-,-,6.50,-1.50,-,-,-,-,-,-,-,-,-,-,-,-,-,-,-,-,-,-,-,-,-,-,-,-,-,-,-,-,-,-,-,-,-,-,-,-,-,-,-,-,-,-,-,-,-,-,-,-,-,-,-,-,-,-,-,-,-,-,-,-,-,-,-,-,-
2025-03-25 13:23:16.640,MovementStep,6639ba1a258d1a06a958a91d,18,Male,-,1,-,-,-,-,-,-,-,-,-,-,-,6.50,-1.50,5.50,-1.50,0.097,-,-,-,-,-,-,-,-,-,-,-,-,-,-,-,-,-,-,-,-,-,-,-,-,-,-,-,-,-,-,-,-,-,-,-,-,-,-,-,-,-,-,-,-,-,-,-,-,-,-,-,-,-,-,-,-,-,-,-,-,-,-
2025-03-25 13:23:16.709,MovementStart,6639ba1a258d1a06a958a91d,18,Male,-,1,-,-,-,-,-,-,-,-,-,-,-,5.52,-1.50,-,-,-,-,-,-,-,-,-,-,-,-,-,-,-,-,-,-,-,-,-,-,-,-,-,-,-,-,-,-,-,-,-,-,-,-,-,-,-,-,-,-,-,-,-,-,-,-,-,-,-,-,-,-,-,-,-,-,-,-,-,-,-,-,-
2025-03-25 13:23:16.809,MovementStep,6639ba1a258d1a06a958a91d,18,Male,-,1,-,-,-,-,-,-,-,-,-,-,-,5.52,-1.50,4.52,-1.50,0.100,-,-,-,-,-,-,-,-,-,-,-,-,-,-,-,-,-,-,-,-,-,-,-,-,-,-,-,-,-,-,-,-,-,-,-,-,-,-,-,-,-,-,-,-,-,-,-,-,-,-,-,-,-,-,-,-,-,-,-,-,-,-
2025-03-25 13:23:16.869,MovementStart,6639ba1a258d1a06a958a91d,18,Male,-,1,-,-,-,-,-,-,-,-,-,-,-,4.52,-1.50,-,-,-,-,-,-,-,-,-,-,-,-,-,-,-,-,-,-,-,-,-,-,-,-,-,-,-,-,-,-,-,-,-,-,-,-,-,-,-,-,-,-,-,-,-,-,-,-,-,-,-,-,-,-,-,-,-,-,-,-,-,-,-,-,-
2025-03-25 13:23:16.968,MovementStep,6639ba1a258d1a06a958a91d,18,Male,-,1,-,-,-,-,-,-,-,-,-,-,-,4.52,-1.50,3.52,-1.50,0.099,-,-,-,-,-,-,-,-,-,-,-,-,-,-,-,-,-,-,-,-,-,-,-,-,-,-,-,-,-,-,-,-,-,-,-,-,-,-,-,-,-,-,-,-,-,-,-,-,-,-,-,-,-,-,-,-,-,-,-,-,-,-
2025-03-25 13:23:17.037,MovementStart,6639ba1a258d1a06a958a91d,18,Male,-,1,-,-,-,-,-,-,-,-,-,-,-,3.52,-1.50,-,-,-,-,-,-,-,-,-,-,-,-,-,-,-,-,-,-,-,-,-,-,-,-,-,-,-,-,-,-,-,-,-,-,-,-,-,-,-,-,-,-,-,-,-,-,-,-,-,-,-,-,-,-,-,-,-,-,-,-,-,-,-,-,-
2025-03-25 13:23:17.138,MovementStep,6639ba1a258d1a06a958a91d,18,Male,-,1,-,-,-,-,-,-,-,-,-,-,-,3.52,-1.50,2.52,-1.50,0.101,-,-,-,-,-,-,-,-,-,-,-,-,-,-,-,-,-,-,-,-,-,-,-,-,-,-,-,-,-,-,-,-,-,-,-,-,-,-,-,-,-,-,-,-,-,-,-,-,-,-,-,-,-,-,-,-,-,-,-,-,-,-
2025-03-25 13:23:17.204,MovementStart,6639ba1a258d1a06a958a91d,18,Male,-,1,-,-,-,-,-,-,-,-,-,-,-,2.52,-1.50,-,-,-,-,-,-,-,-,-,-,-,-,-,-,-,-,-,-,-,-,-,-,-,-,-,-,-,-,-,-,-,-,-,-,-,-,-,-,-,-,-,-,-,-,-,-,-,-,-,-,-,-,-,-,-,-,-,-,-,-,-,-,-,-,-
2025-03-25 13:23:17.222,CollisionTime,6639ba1a258d1a06a958a91d,18,Male,0,1,-,-,-,-,-,-,-,-,-,-,-,-,-,-,-,-,-,-,-,-,-,-,-,-,-,-,-,-,-,-,-,-,-,-,-,-,-,-,-,-,-,-,-,-,-,-,-,-,-,-,-,-,-,True,-,-,-,-,-,-,-,-,-,-,-,7.620,-,-,-,-,-,-,-,-,-,0.680,-,1.353
2025-03-25 13:23:17.224,DecisionOutcome,6639ba1a258d1a06a958a91d,18,Male,0,1,1,1,Work,1.733,Success,True,0.680,5,-,-,-,-,-,-,-,-,-,-,-,-,-,-,-,-,-,-,-,-,-,-,-,-,-,-,-,-,-,-,-,-,-,-,-,-,-,-,-,-,-,-,-,-,-,True,-,-,-,-,-,-,-,-,-,-,-,-,-,-,-,-,-,-,-,-,-,-,-,-
2025-03-25 13:23:17.224,MovementComplete,6639ba1a258d1a06a958a91d,18,Male,-,1,-,-,-,-,-,True,-,-,-,-,-,-,-,-,-,-,-,-,-,-,-,-,-,-,-,-,-,-,-,-,-,-,-,-,-,-,-,-,-,-,-,-,-,-,-,-,-,-,-,-,-,-,-,-,-,-,-,-,-,-,-,-,0.680,5,-,-,-,-,-,-,-,-,-,-,-,-,-,-
2025-03-25 13:23:17.225,RewardCollected,6639ba1a258d1a06a958a91d,18,Male,-,1,-,-,-,-,-,-,-,-,-,-,-,-,-,-,-,-,-,-,-,-,-,-,-,-,-,-,-,-,-,-,-,-,-,-,-,-,-,-,-,-,-,-,-,-,-,-,-,-,-,-,-,-,-,-,-,-,-,-,-,-,-,-,-,-,True,-,-,-,-,-,-,-,-,-,-,-,-,-
2025-03-25 13:23:17.225,MovementDuration,6639ba1a258d1a06a958a91d,18,Male,-,1,-,-,-,-,Success,-,-,-,-,-,-,-,-,-,-,-,-,-,-,-,-,-,-,-,-,-,-,-,-,-,-,-,-,-,-,-,-,-,-,-,-,-,-,-,-,-,-,-,-,-,-,-,-,-,-,-,-,-,-,-,-,-,-,-,-,-,-,-,-,-,-,-,-,-,-,0.680,-,-
2025-03-25 13:23:17.225,OutcomeType,6639ba1a258d1a06a958a91d,18,Male,-,1,-,-,-,-,Success,-,-,-,-,-,-,-,-,-,-,-,-,-,-,-,-,-,-,-,-,-,-,-,-,-,-,-,-,-,-,-,-,-,-,-,-,-,-,-,-,-,-,-,-,-,-,-,-,-,-,-,-,-,-,-,-,-,-,-,-,-,-,-,-,-,-,-,-,-,-,-,-,-
2025-03-25 13:23:17.226,RewardCollected,6639ba1a258d1a06a958a91d,18,Male,-,1,-,-,-,-,-,-,-,-,-,-,-,-,-,-,-,-,-,-,-,-,-,-,-,-,-,-,-,-,-,-,-,-,-,-,-,-,-,-,-,-,-,-,-,-,-,-,-,-,-,-,-,-,-,-,-,-,-,-,-,-,-,-,-,-,True,-,-,-,-,-,-,-,-,-,-,-,-,-
2025-03-25 13:23:17.228,ScoreUpdate,6639ba1a258d1a06a958a91d,18,Male,0,1,-,-,-,-,-,-,-,-,0,10,-,-,-,-,-,-,-,-,-,-,-,-,-,-,-,-,-,-,-,-,-,-,-,-,-,-,-,-,-,-,-,-,-,-,-,-,-,-,-,-,-,-,-,True,-,-,-,-,-,-,10,PracticeScoreAdded,-,-,-,-,-,-,-,-,-,-,-,-,-,-,-,-
2025-03-25 13:23:17.230,ButtonPresses,6639ba1a258d1a06a958a91d,18,Male,-,1,-,-,-,-,-,-,-,-,-,-,-,-,-,-,-,-,-,-,-,-,-,-,-,-,-,-,-,-,-,-,-,-,-,-,-,-,-,-,-,-,-,-,-,-,-,-,-,-,-,-,-,-,-,-,-,-,-,-,-,-,-,-,-,-,-,-,-,0.674:left|0.841:left|1.001:left|1.169:left|1.337:left,-,-,-,-,-,-,-,-,5,-
2025-03-25 13:23:17.305,MovementStep,6639ba1a258d1a06a958a91d,18,Male,-,1,-,-,-,-,-,-,-,-,-,-,-,2.52,-1.50,1.52,-1.50,0.101,-,-,-,-,-,-,-,-,-,-,-,-,-,-,-,-,-,-,-,-,-,-,-,-,-,-,-,-,-,-,-,-,-,-,-,-,-,-,-,-,-,-,-,-,-,-,-,-,-,-,-,-,-,-,-,-,-,-,-,-,-,-
2025-03-25 13:23:21.120,InfoMessage,6639ba1a258d1a06a958a91d,18,Male,-,-,-,-,-,-,-,-,-,-,-,-,-,-,-,-,-,-,-,-,-,-,-,-,-,-,-,-,-,-,-,-,-,-,-,-,-,-,-,-,-,-,-,-,-,-,-,-,-,-,-,-,-,-,-,-,-,Practice Score Manager Destroyed,Final Practice Score: 0,-,-,-,-,-,-,-,-,-,-,-,-,-,-,-,-,-,-,-,-,-
2025-03-25 13:23:22.999,PracticeTrialStart,6639ba1a258d1a06a958a91d,18,Male,0,2,-,-,-,-,-,-,-,-,-,-,-,-,-,-,-,-,-,-,-,-,-,-,-,-,-,-,-,-,-,-,-,-,-,-,-,-,-,-,-,-,-,-,-,-,-,-,-,-,-,-,-,-,-,True,-,-,-,-,-,-,-,-,-,-,-,-,-,-,-,-,-,-,-,-,-,-,-,-
2025-03-25 13:23:23.738,MovementStart,6639ba1a258d1a06a958a91d,18,Male,-,2,-,-,-,-,-,-,-,-,-,-,-,-2.50,-3.50,-,-,-,-,-,-,-,-,-,-,-,-,-,-,-,-,-,-,-,-,-,-,-,-,-,-,-,-,-,-,-,-,-,-,-,-,-,-,-,-,-,-,-,-,-,-,-,-,-,-,-,-,-,-,-,-,-,-,-,-,-,-,-,-,-
2025-03-25 13:23:23.838,MovementStep,6639ba1a258d1a06a958a91d,18,Male,-,2,-,-,-,-,-,-,-,-,-,-,-,-2.50,-3.50,-1.50,-3.50,0.100,-,-,-,-,-,-,-,-,-,-,-,-,-,-,-,-,-,-,-,-,-,-,-,-,-,-,-,-,-,-,-,-,-,-,-,-,-,-,-,-,-,-,-,-,-,-,-,-,-,-,-,-,-,-,-,-,-,-,-,-,-,-
2025-03-25 13:23:24.008,MovementStart,6639ba1a258d1a06a958a91d,18,Male,-,2,-,-,-,-,-,-,-,-,-,-,-,-1.52,-3.50,-,-,-,-,-,-,-,-,-,-,-,-,-,-,-,-,-,-,-,-,-,-,-,-,-,-,-,-,-,-,-,-,-,-,-,-,-,-,-,-,-,-,-,-,-,-,-,-,-,-,-,-,-,-,-,-,-,-,-,-,-,-,-,-,-
2025-03-25 13:23:24.108,MovementStep,6639ba1a258d1a06a958a91d,18,Male,-,2,-,-,-,-,-,-,-,-,-,-,-,-1.52,-3.50,-0.52,-3.50,0.100,-,-,-,-,-,-,-,-,-,-,-,-,-,-,-,-,-,-,-,-,-,-,-,-,-,-,-,-,-,-,-,-,-,-,-,-,-,-,-,-,-,-,-,-,-,-,-,-,-,-,-,-,-,-,-,-,-,-,-,-,-,-
2025-03-25 13:23:24.305,MovementStart,6639ba1a258d1a06a958a91d,18,Male,-,2,-,-,-,-,-,-,-,-,-,-,-,-0.52,-3.50,-,-,-,-,-,-,-,-,-,-,-,-,-,-,-,-,-,-,-,-,-,-,-,-,-,-,-,-,-,-,-,-,-,-,-,-,-,-,-,-,-,-,-,-,-,-,-,-,-,-,-,-,-,-,-,-,-,-,-,-,-,-,-,-,-
2025-03-25 13:23:24.404,MovementStep,6639ba1a258d1a06a958a91d,18,Male,-,2,-,-,-,-,-,-,-,-,-,-,-,-0.52,-3.50,0.48,-3.50,0.100,-,-,-,-,-,-,-,-,-,-,-,-,-,-,-,-,-,-,-,-,-,-,-,-,-,-,-,-,-,-,-,-,-,-,-,-,-,-,-,-,-,-,-,-,-,-,-,-,-,-,-,-,-,-,-,-,-,-,-,-,-,-
2025-03-25 13:23:24.676,MovementStart,6639ba1a258d1a06a958a91d,18,Male,-,2,-,-,-,-,-,-,-,-,-,-,-,0.48,-3.50,-,-,-,-,-,-,-,-,-,-,-,-,-,-,-,-,-,-,-,-,-,-,-,-,-,-,-,-,-,-,-,-,-,-,-,-,-,-,-,-,-,-,-,-,-,-,-,-,-,-,-,-,-,-,-,-,-,-,-,-,-,-,-,-,-
2025-03-25 13:23:24.777,MovementStep,6639ba1a258d1a06a958a91d,18,Male,-,2,-,-,-,-,-,-,-,-,-,-,-,0.48,-3.50,1.48,-3.50,0.101,-,-,-,-,-,-,-,-,-,-,-,-,-,-,-,-,-,-,-,-,-,-,-,-,-,-,-,-,-,-,-,-,-,-,-,-,-,-,-,-,-,-,-,-,-,-,-,-,-,-,-,-,-,-,-,-,-,-,-,-,-,-
2025-03-25 13:23:25.396,MovementStart,6639ba1a258d1a06a958a91d,18,Male,-,2,-,-,-,-,-,-,-,-,-,-,-,1.46,-3.50,-,-,-,-,-,-,-,-,-,-,-,-,-,-,-,-,-,-,-,-,-,-,-,-,-,-,-,-,-,-,-,-,-,-,-,-,-,-,-,-,-,-,-,-,-,-,-,-,-,-,-,-,-,-,-,-,-,-,-,-,-,-,-,-,-
2025-03-25 13:23:25.419,CollisionTime,6639ba1a258d1a06a958a91d,18,Male,0,2,-,-,-,-,-,-,-,-,-,-,-,-,-,-,-,-,-,-,-,-,-,-,-,-,-,-,-,-,-,-,-,-,-,-,-,-,-,-,-,-,-,-,-,-,-,-,-,-,-,-,-,-,-,True,-,-,-,-,-,-,-,-,-,-,-,15.260,-,-,-,-,-,-,-,-,-,1.680,-,2.274
2025-03-25 13:23:25.420,DecisionOutcome,6639ba1a258d1a06a958a91d,18,Male,0,2,1,1,Work,0.401,Success,True,1.680,5,-,-,-,-,-,-,-,-,-,-,-,-,-,-,-,-,-,-,-,-,-,-,-,-,-,-,-,-,-,-,-,-,-,-,-,-,-,-,-,-,-,-,-,-,-,True,-,-,-,-,-,-,-,-,-,-,-,-,-,-,-,-,-,-,-,-,-,-,-,-
2025-03-25 13:23:25.421,MovementComplete,6639ba1a258d1a06a958a91d,18,Male,-,2,-,-,-,-,-,True,-,-,-,-,-,-,-,-,-,-,-,-,-,-,-,-,-,-,-,-,-,-,-,-,-,-,-,-,-,-,-,-,-,-,-,-,-,-,-,-,-,-,-,-,-,-,-,-,-,-,-,-,-,-,-,-,1.680,5,-,-,-,-,-,-,-,-,-,-,-,-,-,-
2025-03-25 13:23:25.421,RewardCollected,6639ba1a258d1a06a958a91d,18,Male,-,2,-,-,-,-,-,-,-,-,-,-,-,-,-,-,-,-,-,-,-,-,-,-,-,-,-,-,-,-,-,-,-,-,-,-,-,-,-,-,-,-,-,-,-,-,-,-,-,-,-,-,-,-,-,-,-,-,-,-,-,-,-,-,-,-,True,-,-,-,-,-,-,-,-,-,-,-,-,-
2025-03-25 13:23:25.422,MovementDuration,6639ba1a258d1a06a958a91d,18,Male,-,2,-,-,-,-,Success,-,-,-,-,-,-,-,-,-,-,-,-,-,-,-,-,-,-,-,-,-,-,-,-,-,-,-,-,-,-,-,-,-,-,-,-,-,-,-,-,-,-,-,-,-,-,-,-,-,-,-,-,-,-,-,-,-,-,-,-,-,-,-,-,-,-,-,-,-,-,1.680,-,-
2025-03-25 13:23:25.422,OutcomeType,6639ba1a258d1a06a958a91d,18,Male,-,2,-,-,-,-,Success,-,-,-,-,-,-,-,-,-,-,-,-,-,-,-,-,-,-,-,-,-,-,-,-,-,-,-,-,-,-,-,-,-,-,-,-,-,-,-,-,-,-,-,-,-,-,-,-,-,-,-,-,-,-,-,-,-,-,-,-,-,-,-,-,-,-,-,-,-,-,-,-,-
2025-03-25 13:23:25.422,RewardCollected,6639ba1a258d1a06a958a91d,18,Male,-,2,-,-,-,-,-,-,-,-,-,-,-,-,-,-,-,-,-,-,-,-,-,-,-,-,-,-,-,-,-,-,-,-,-,-,-,-,-,-,-,-,-,-,-,-,-,-,-,-,-,-,-,-,-,-,-,-,-,-,-,-,-,-,-,-,True,-,-,-,-,-,-,-,-,-,-,-,-,-
2025-03-25 13:23:25.424,ScoreUpdate,6639ba1a258d1a06a958a91d,18,Male,0,2,-,-,-,-,-,-,-,-,0,20,-,-,-,-,-,-,-,-,-,-,-,-,-,-,-,-,-,-,-,-,-,-,-,-,-,-,-,-,-,-,-,-,-,-,-,-,-,-,-,-,-,-,-,True,-,-,-,-,-,-,10,PracticeScoreAdded,-,-,-,-,-,-,-,-,-,-,-,-,-,-,-,-
2025-03-25 13:23:25.425,ButtonPresses,6639ba1a258d1a06a958a91d,18,Male,-,2,-,-,-,-,-,-,-,-,-,-,-,-,-,-,-,-,-,-,-,-,-,-,-,-,-,-,-,-,-,-,-,-,-,-,-,-,-,-,-,-,-,-,-,-,-,-,-,-,-,-,-,-,-,-,-,-,-,-,-,-,-,-,-,-,-,-,-,0.594:right|0.864:right|1.161:right|1.532:right|2.253:right,-,-,-,-,-,-,-,-,5,-
2025-03-25 13:23:25.497,MovementStep,6639ba1a258d1a06a958a91d,18,Male,-,2,-,-,-,-,-,-,-,-,-,-,-,1.46,-3.50,2.46,-3.50,0.101,-,-,-,-,-,-,-,-,-,-,-,-,-,-,-,-,-,-,-,-,-,-,-,-,-,-,-,-,-,-,-,-,-,-,-,-,-,-,-,-,-,-,-,-,-,-,-,-,-,-,-,-,-,-,-,-,-,-,-,-,-,-
2025-03-25 13:23:28.395,InfoMessage,6639ba1a258d1a06a958a91d,18,Male,-,-,-,-,-,-,-,-,-,-,-,-,-,-,-,-,-,-,-,-,-,-,-,-,-,-,-,-,-,-,-,-,-,-,-,-,-,-,-,-,-,-,-,-,-,-,-,-,-,-,-,-,-,-,-,-,-,Practice Score Manager Destroyed,Final Practice Score: 0,-,-,-,-,-,-,-,-,-,-,-,-,-,-,-,-,-,-,-,-,-
2025-03-25 13:23:30.330,InfoMessage,6639ba1a258d1a06a958a91d,18,Male,-,-,-,-,-,-,-,-,-,-,-,-,-,-,-,-,-,-,-,-,-,-,-,-,-,-,-,-,-,-,-,-,-,-,-,-,-,-,-,-,-,-,-,-,-,-,-,-,-,-,-,-,-,-,-,-,-,Practice Score Manager Destroyed,Final Practice Score: 20,-,-,-,-,-,-,-,-,-,-,-,-,-,-,-,-,-,-,-,-,-
